"time (s)","VT("/vhold") (V)"
0.00000,0.00000
1.0E-8,4.712E-14
3.0E-8,3.299E-13
7.0E-8,1.272E-12
1.5E-7,5.419E-12
3.1E-7,2.276E-11
6.3E-7,9.362E-11
1.01E-6,2.404E-10
1.02E-6,4.756E-6
1.03E-6,9.839E-6
1.043E-6,1.581E-5
1.055E-6,2.175E-5
1.079E-6,3.382E-5
1.127E-6,5.878E-5
1.223E-6,1.119E-4
1.416E-6,2.311E-4
1.708E-6,4.448E-4
2.0E-6,6.978E-4
2.010E-6,0.09399
2.017E-6,0.09399
2.026E-6,0.09399
2.034E-6,0.09399
2.051E-6,0.09399
2.084E-6,0.09399
2.151E-6,0.09399
2.284E-6,0.09399
2.551E-6,0.09399
3.010E-6,0.09399
3.02E-6,0.09400
3.031E-6,0.09400
3.043E-6,0.09401
3.055E-6,0.09401
3.079E-6,0.09402
3.128E-6,0.09405
3.224E-6,0.09410
3.418E-6,0.09422
3.709E-6,0.09443
4.0E-6,0.09468
4.01E-6,0.1865
4.017E-6,0.1865
4.026E-6,0.1865
4.034E-6,0.1865
4.051E-6,0.1865
4.085E-6,0.1865
4.152E-6,0.1865
4.286E-6,0.1865
4.555E-6,0.1865
5.01E-6,0.1865
5.020E-6,0.1865
5.031E-6,0.1865
5.043E-6,0.1865
5.055E-6,0.1865
5.08E-6,0.1865
5.129E-6,0.1866
5.228E-6,0.1866
5.424E-6,0.1867
5.712E-6,0.1869
6.0E-6,0.1872
6.01E-6,0.2761
6.018E-6,0.2761
6.026E-6,0.2761
6.035E-6,0.2761
6.052E-6,0.2761
6.086E-6,0.2761
6.154E-6,0.2761
6.291E-6,0.2761
6.564E-6,0.2761
7.01E-6,0.2761
7.020E-6,0.2761
7.031E-6,0.2761
7.044E-6,0.2761
7.056E-6,0.2761
7.082E-6,0.2761
7.132E-6,0.2761
7.233E-6,0.2762
7.434E-6,0.2763
7.717E-6,0.2765
8.0E-6,0.2767
8.01E-6,0.3613
8.015E-6,0.3613
8.02E-6,0.3613
8.022E-6,0.3613
8.026E-6,0.3613
8.028E-6,0.3613
8.03E-6,0.3613
8.032E-6,0.3613
8.034E-6,0.3613
8.036E-6,0.3613
8.041E-6,0.3613
8.049E-6,0.3613
8.067E-6,0.3613
8.102E-6,0.3613
8.172E-6,0.3613
8.312E-6,0.3613
8.591E-6,0.3613
9.01E-6,0.3613
9.02E-6,0.3613
9.031E-6,0.3613
9.045E-6,0.3613
9.058E-6,0.3613
9.084E-6,0.3613
9.136E-6,0.3614
9.24E-6,0.3614
9.449E-6,0.3615
9.724E-6,0.3617
1.0E-5,0.3619
1.001E-5,0.4408
1.002E-5,0.4408
1.003E-5,0.4408
1.004E-5,0.4408
1.005E-5,0.4408
1.009E-5,0.4408
1.016E-5,0.4408
1.031E-5,0.4408
1.06E-5,0.4408
1.101E-5,0.4408
1.102E-5,0.4408
1.103E-5,0.4408
1.105E-5,0.4408
1.106E-5,0.4409
1.109E-5,0.4409
1.114E-5,0.4409
1.125E-5,0.4409
1.147E-5,0.4410
1.173E-5,0.4412
1.2E-5,0.4414
1.201E-5,0.5134
1.202E-5,0.5134
1.203E-5,0.5134
1.204E-5,0.5134
1.206E-5,0.5134
1.209E-5,0.5134
1.217E-5,0.5134
1.232E-5,0.5134
1.263E-5,0.5134
1.301E-5,0.5134
1.302E-5,0.5134
1.303E-5,0.5134
1.305E-5,0.5134
1.306E-5,0.5134
1.309E-5,0.5134
1.315E-5,0.5135
1.327E-5,0.5135
1.35E-5,0.5136
1.375E-5,0.5137
1.400E-5,0.5139
1.401E-5,0.5779
1.402E-5,0.5779
1.402E-5,0.5779
1.403E-5,0.5779
1.403E-5,0.5779
1.403E-5,0.5779
1.404E-5,0.5779
1.404E-5,0.5779
1.404E-5,0.5779
1.405E-5,0.5779
1.408E-5,0.5779
1.412E-5,0.5779
1.421E-5,0.5779
1.438E-5,0.5779
1.473E-5,0.5779
1.501E-5,0.5779
1.502E-5,0.5779
1.503E-5,0.5779
1.505E-5,0.5779
1.507E-5,0.5779
1.51E-5,0.5779
1.516E-5,0.5779
1.529E-5,0.5780
1.554E-5,0.5781
1.6E-5,0.5783
1.601E-5,0.6332
1.602E-5,0.6332
1.603E-5,0.6332
1.604E-5,0.6332
1.606E-5,0.6332
1.611E-5,0.6332
1.62E-5,0.6332
1.637E-5,0.6332
1.672E-5,0.6332
1.701E-5,0.6332
1.702E-5,0.6332
1.704E-5,0.6333
1.706E-5,0.6333
1.708E-5,0.6333
1.712E-5,0.6333
1.72E-5,0.6333
1.735E-5,0.6333
1.767E-5,0.6335
1.8E-5,0.6336
1.801E-5,0.6786
1.802E-5,0.6786
1.803E-5,0.6786
1.805E-5,0.6786
1.807E-5,0.6786
1.812E-5,0.6786
1.822E-5,0.6786
1.841E-5,0.6786
1.871E-5,0.6786
1.901E-5,0.6786
1.902E-5,0.6786
1.904E-5,0.6786
1.906E-5,0.6786
1.908E-5,0.6786
1.913E-5,0.6786
1.921E-5,0.6787
1.939E-5,0.6787
1.973E-5,0.6788
2.0E-5,0.6789
2.001E-5,0.7133
2.002E-5,0.7133
2.004E-5,0.7133
2.005E-5,0.7133
2.008E-5,0.7133
2.014E-5,0.7133
2.025E-5,0.7133
2.048E-5,0.7133
2.074E-5,0.7133
2.101E-5,0.7133
2.102E-5,0.7133
2.104E-5,0.7133
2.107E-5,0.7133
2.109E-5,0.7133
2.114E-5,0.7133
2.124E-5,0.7133
2.144E-5,0.7134
2.172E-5,0.7134
2.2E-5,0.7135
2.201E-5,0.7367
2.203E-5,0.7367
2.205E-5,0.7367
2.207E-5,0.7367
2.211E-5,0.7367
2.219E-5,0.7367
2.235E-5,0.7367
2.266E-5,0.7367
2.301E-5,0.7367
2.302E-5,0.7367
2.304E-5,0.7367
2.308E-5,0.7367
2.311E-5,0.7367
2.318E-5,0.7367
2.331E-5,0.7367
2.357E-5,0.7368
2.4E-5,0.7368
2.401E-5,0.7485
2.403E-5,0.7485
2.406E-5,0.7485
2.408E-5,0.7485
2.414E-5,0.7485
2.424E-5,0.7485
2.445E-5,0.7485
2.473E-5,0.7485
2.501E-5,0.7485
2.502E-5,0.7485
2.504E-5,0.7485
2.508E-5,0.7485
2.514E-5,0.7485
2.525E-5,0.7485
2.547E-5,0.7485
2.574E-5,0.7485
2.6E-5,0.7485
2.601E-5,0.7485
2.603E-5,0.7485
2.607E-5,0.7485
2.615E-5,0.7485
2.631E-5,0.7485
2.663E-5,0.7485
2.701E-5,0.7485
2.702E-5,0.7485
2.704E-5,0.7485
2.708E-5,0.7485
2.712E-5,0.7485
2.72E-5,0.7485
2.735E-5,0.7485
2.766E-5,0.7485
2.800E-5,0.7484
2.801E-5,0.7367
2.803E-5,0.7367
2.806E-5,0.7367
2.808E-5,0.7367
2.814E-5,0.7367
2.824E-5,0.7367
2.845E-5,0.7367
2.873E-5,0.7367
2.901E-5,0.7367
2.902E-5,0.7367
2.904E-5,0.7367
2.908E-5,0.7367
2.911E-5,0.7367
2.917E-5,0.7367
2.928E-5,0.7367
2.952E-5,0.7366
2.976E-5,0.7366
3.0E-5,0.7366
3.001E-5,0.7133
3.003E-5,0.7133
3.005E-5,0.7133
3.007E-5,0.7133
3.011E-5,0.7133
3.019E-5,0.7133
3.035E-5,0.7133
3.067E-5,0.7133
3.101E-5,0.7133
3.102E-5,0.7133
3.104E-5,0.7133
3.106E-5,0.7133
3.109E-5,0.7133
3.113E-5,0.7133
3.123E-5,0.7133
3.141E-5,0.7132
3.17E-5,0.7131
3.2E-5,0.7130
3.201E-5,0.6786
3.202E-5,0.6786
3.204E-5,0.6786
3.205E-5,0.6786
3.208E-5,0.6786
3.214E-5,0.6786
3.225E-5,0.6786
3.248E-5,0.6786
3.274E-5,0.6786
3.301E-5,0.6786
3.302E-5,0.6786
3.304E-5,0.6786
3.306E-5,0.6786
3.308E-5,0.6786
3.312E-5,0.6786
3.320E-5,0.6786
3.337E-5,0.6785
3.37E-5,0.6784
3.4E-5,0.6783
3.401E-5,0.6332
3.402E-5,0.6332
3.403E-5,0.6332
3.405E-5,0.6332
3.407E-5,0.6332
3.412E-5,0.6332
3.422E-5,0.6332
3.441E-5,0.6332
3.471E-5,0.6332
3.501E-5,0.6332
3.502E-5,0.6332
3.503E-5,0.6332
3.505E-5,0.6332
3.507E-5,0.6332
3.510E-5,0.6332
3.517E-5,0.6332
3.530E-5,0.6332
3.556E-5,0.6331
3.6E-5,0.6328
3.601E-5,0.5779
3.602E-5,0.5779
3.603E-5,0.5779
3.604E-5,0.5779
3.606E-5,0.5779
3.611E-5,0.5779
3.62E-5,0.5779
3.637E-5,0.5779
3.672E-5,0.5779
3.701E-5,0.5779
3.702E-5,0.5779
3.703E-5,0.5779
3.705E-5,0.5779
3.706E-5,0.5779
3.709E-5,0.5779
3.715E-5,0.5778
3.727E-5,0.5778
3.752E-5,0.5777
3.776E-5,0.5776
3.800E-5,0.5774
3.801E-5,0.5134
3.802E-5,0.5134
3.802E-5,0.5134
3.803E-5,0.5134
3.803E-5,0.5134
3.803E-5,0.5134
3.804E-5,0.5134
3.804E-5,0.5134
3.804E-5,0.5134
3.805E-5,0.5134
3.808E-5,0.5134
3.812E-5,0.5134
3.821E-5,0.5134
3.838E-5,0.5134
3.873E-5,0.5134
3.901E-5,0.5134
3.902E-5,0.5134
3.903E-5,0.5134
3.905E-5,0.5134
3.906E-5,0.5134
3.909E-5,0.5134
3.914E-5,0.5134
3.926E-5,0.5133
3.948E-5,0.5132
3.974E-5,0.5131
4.0E-5,0.5129
4.001E-5,0.4408
4.002E-5,0.4408
4.003E-5,0.4408
4.004E-5,0.4408
4.006E-5,0.4408
4.009E-5,0.4408
4.017E-5,0.4408
4.032E-5,0.4408
4.063E-5,0.4408
4.101E-5,0.4408
4.102E-5,0.4408
4.103E-5,0.4408
4.105E-5,0.4408
4.106E-5,0.4408
4.109E-5,0.4408
4.114E-5,0.4408
4.125E-5,0.4407
4.146E-5,0.4406
4.173E-5,0.4405
4.2E-5,0.4403
4.201E-5,0.3613
4.202E-5,0.3613
4.203E-5,0.3613
4.204E-5,0.3613
4.205E-5,0.3613
4.209E-5,0.3613
4.216E-5,0.3613
4.231E-5,0.3613
4.26E-5,0.3613
4.301E-5,0.3613
4.302E-5,0.3613
4.303E-5,0.3613
4.304E-5,0.3613
4.306E-5,0.3613
4.308E-5,0.3613
4.313E-5,0.3613
4.324E-5,0.3612
4.344E-5,0.3611
4.372E-5,0.3609
4.4E-5,0.3607
4.401E-5,0.2761
4.402E-5,0.2761
4.402E-5,0.2761
4.402E-5,0.2761
4.403E-5,0.2761
4.403E-5,0.2761
4.403E-5,0.2761
4.403E-5,0.2761
4.403E-5,0.2761
4.404E-5,0.2761
4.404E-5,0.2761
4.405E-5,0.2761
4.407E-5,0.2761
4.41E-5,0.2761
4.417E-5,0.2761
4.431E-5,0.2761
4.459E-5,0.2761
4.501E-5,0.2761
4.502E-5,0.2761
4.503E-5,0.2761
4.504E-5,0.2761
4.506E-5,0.2761
4.508E-5,0.2761
4.513E-5,0.2760
4.523E-5,0.2760
4.543E-5,0.2759
4.571E-5,0.2757
4.600E-5,0.2754
4.601E-5,0.1865
4.602E-5,0.1865
4.603E-5,0.1865
4.603E-5,0.1865
4.605E-5,0.1865
4.609E-5,0.1865
4.615E-5,0.1865
4.629E-5,0.1865
4.656E-5,0.1865
4.701E-5,0.1865
4.702E-5,0.1865
4.703E-5,0.1865
4.704E-5,0.1865
4.706E-5,0.1865
4.708E-5,0.1865
4.713E-5,0.1865
4.723E-5,0.1864
4.742E-5,0.1863
4.771E-5,0.1861
4.8E-5,0.1858
4.801E-5,0.09401
4.802E-5,0.09401
4.803E-5,0.09401
4.803E-5,0.09401
4.805E-5,0.09401
4.808E-5,0.09401
4.815E-5,0.09401
4.829E-5,0.09401
4.855E-5,0.09401
4.901E-5,0.09401
4.902E-5,0.09400
4.903E-5,0.09400
4.904E-5,0.09399
4.905E-5,0.09399
4.908E-5,0.09397
4.913E-5,0.09395
4.922E-5,0.09390
4.942E-5,0.09378
4.971E-5,0.09356
5.0E-5,0.09331
5.001E-5,8.813E-6
5.002E-5,8.812E-6
5.003E-5,8.812E-6
5.003E-5,8.812E-6
5.005E-5,8.812E-6
5.008E-5,8.812E-6
5.015E-5,8.812E-6
5.028E-5,8.812E-6
5.055E-5,8.812E-6
5.101E-5,8.811E-6
5.102E-5,4.055E-6
5.103E-5,-1.029E-6
5.104E-5,-5.904E-6
5.104E-5,-7.607E-6
5.105E-5,-9.215E-6
5.105E-5,-1.083E-5
5.105E-5,-1.203E-5
5.106E-5,-1.341E-5
5.106E-5,-1.477E-5
5.106E-5,-1.749E-5
5.107E-5,-2.298E-5
5.11E-5,-3.412E-5
5.114E-5,-5.707E-5
5.123E-5,-1.056E-4
5.14E-5,-2.133E-4
5.175E-5,-4.709E-4
5.2E-5,-6.891E-4
5.201E-5,-0.09400
5.202E-5,-0.09400
5.203E-5,-0.09400
5.203E-5,-0.09400
5.205E-5,-0.09400
5.208E-5,-0.09400
5.215E-5,-0.09400
5.228E-5,-0.09400
5.255E-5,-0.09400
5.301E-5,-0.09400
5.302E-5,-0.09400
5.303E-5,-0.09400
5.304E-5,-0.09401
5.305E-5,-0.09402
5.308E-5,-0.09403
5.313E-5,-0.09405
5.322E-5,-0.09411
5.342E-5,-0.09422
5.371E-5,-0.09444
5.4E-5,-0.09468
5.401E-5,-0.1865
5.402E-5,-0.1865
5.403E-5,-0.1865
5.403E-5,-0.1865
5.405E-5,-0.1865
5.408E-5,-0.1865
5.415E-5,-0.1865
5.429E-5,-0.1865
5.455E-5,-0.1865
5.501E-5,-0.1865
5.502E-5,-0.1865
5.503E-5,-0.1865
5.504E-5,-0.1865
5.506E-5,-0.1865
5.508E-5,-0.1865
5.513E-5,-0.1866
5.523E-5,-0.1866
5.542E-5,-0.1867
5.571E-5,-0.1869
5.600E-5,-0.1872
5.601E-5,-0.2761
5.602E-5,-0.2761
5.603E-5,-0.2761
5.603E-5,-0.2761
5.605E-5,-0.2761
5.609E-5,-0.2761
5.615E-5,-0.2761
5.629E-5,-0.2761
5.656E-5,-0.2761
5.701E-5,-0.2761
5.702E-5,-0.2761
5.703E-5,-0.2761
5.704E-5,-0.2761
5.706E-5,-0.2761
5.708E-5,-0.2761
5.713E-5,-0.2761
5.723E-5,-0.2762
5.743E-5,-0.2763
5.772E-5,-0.2765
5.8E-5,-0.2767
5.801E-5,-0.3613
5.802E-5,-0.3613
5.802E-5,-0.3613
5.802E-5,-0.3613
5.803E-5,-0.3613
5.803E-5,-0.3613
5.803E-5,-0.3613
5.803E-5,-0.3613
5.803E-5,-0.3613
5.804E-5,-0.3613
5.804E-5,-0.3613
5.805E-5,-0.3613
5.807E-5,-0.3613
5.810E-5,-0.3613
5.817E-5,-0.3613
5.831E-5,-0.3613
5.859E-5,-0.3613
5.901E-5,-0.3613
5.902E-5,-0.3613
5.903E-5,-0.3613
5.904E-5,-0.3613
5.906E-5,-0.3613
5.908E-5,-0.3613
5.914E-5,-0.3614
5.924E-5,-0.3614
5.945E-5,-0.3615
5.972E-5,-0.3617
6.0E-5,-0.3619
6.001E-5,-0.4408
6.002E-5,-0.4408
6.003E-5,-0.4408
6.004E-5,-0.4408
6.005E-5,-0.4408
6.009E-5,-0.4408
6.016E-5,-0.4408
6.031E-5,-0.4408
6.060E-5,-0.4408
6.101E-5,-0.4408
6.102E-5,-0.4408
6.103E-5,-0.4408
6.105E-5,-0.4408
6.106E-5,-0.4409
6.109E-5,-0.4409
6.114E-5,-0.4409
6.125E-5,-0.4409
6.147E-5,-0.4410
6.173E-5,-0.4412
6.2E-5,-0.4414
6.201E-5,-0.5134
6.202E-5,-0.5134
6.203E-5,-0.5134
6.204E-5,-0.5134
6.206E-5,-0.5134
6.209E-5,-0.5134
6.217E-5,-0.5134
6.232E-5,-0.5134
6.263E-5,-0.5134
6.301E-5,-0.5134
6.302E-5,-0.5134
6.303E-5,-0.5134
6.305E-5,-0.5134
6.306E-5,-0.5134
6.309E-5,-0.5134
6.315E-5,-0.5135
6.327E-5,-0.5135
6.350E-5,-0.5136
6.375E-5,-0.5137
6.4E-5,-0.5139
6.401E-5,-0.5779
6.402E-5,-0.5779
6.402E-5,-0.5779
6.403E-5,-0.5779
6.403E-5,-0.5779
6.403E-5,-0.5779
6.404E-5,-0.5779
6.404E-5,-0.5779
6.404E-5,-0.5779
6.405E-5,-0.5779
6.408E-5,-0.5779
6.412E-5,-0.5779
6.421E-5,-0.5779
6.438E-5,-0.5779
6.473E-5,-0.5779
6.501E-5,-0.5779
6.502E-5,-0.5779
6.503E-5,-0.5779
6.505E-5,-0.5779
6.507E-5,-0.5779
6.51E-5,-0.5779
6.516E-5,-0.5779
6.529E-5,-0.5780
6.554E-5,-0.5781
6.600E-5,-0.5783
6.601E-5,-0.6332
6.602E-5,-0.6332
6.603E-5,-0.6332
6.604E-5,-0.6332
6.606E-5,-0.6332
6.611E-5,-0.6332
6.62E-5,-0.6332
6.637E-5,-0.6332
6.672E-5,-0.6332
6.701E-5,-0.6332
6.702E-5,-0.6332
6.704E-5,-0.6333
6.706E-5,-0.6333
6.708E-5,-0.6333
6.712E-5,-0.6333
6.72E-5,-0.6333
6.735E-5,-0.6333
6.767E-5,-0.6335
6.8E-5,-0.6336
6.801E-5,-0.6786
6.802E-5,-0.6786
6.803E-5,-0.6786
6.805E-5,-0.6786
6.807E-5,-0.6786
6.812E-5,-0.6786
6.822E-5,-0.6786
6.841E-5,-0.6786
6.871E-5,-0.6786
6.901E-5,-0.6786
6.902E-5,-0.6786
6.904E-5,-0.6786
6.906E-5,-0.6786
6.908E-5,-0.6786
6.913E-5,-0.6786
6.921E-5,-0.6787
6.939E-5,-0.6787
6.973E-5,-0.6788
7.0E-5,-0.6789
7.001E-5,-0.7133
7.002E-5,-0.7133
7.004E-5,-0.7133
7.005E-5,-0.7133
7.008E-5,-0.7133
7.014E-5,-0.7133
7.025E-5,-0.7133
7.048E-5,-0.7133
7.074E-5,-0.7133
7.101E-5,-0.7133
7.102E-5,-0.7133
7.104E-5,-0.7133
7.107E-5,-0.7133
7.109E-5,-0.7133
7.114E-5,-0.7133
7.124E-5,-0.7133
7.144E-5,-0.7134
7.172E-5,-0.7134
7.2E-5,-0.7135
7.201E-5,-0.7367
7.203E-5,-0.7367
7.205E-5,-0.7367
7.207E-5,-0.7367
7.211E-5,-0.7367
7.219E-5,-0.7367
7.235E-5,-0.7367
7.266E-5,-0.7367
7.301E-5,-0.7367
7.302E-5,-0.7367
7.304E-5,-0.7367
7.308E-5,-0.7367
7.311E-5,-0.7367
7.318E-5,-0.7367
7.331E-5,-0.7367
7.357E-5,-0.7368
7.4E-5,-0.7368
7.401E-5,-0.7485
7.403E-5,-0.7485
7.406E-5,-0.7485
7.408E-5,-0.7485
7.414E-5,-0.7485
7.424E-5,-0.7485
7.445E-5,-0.7485
7.473E-5,-0.7485
7.501E-5,-0.7485
7.502E-5,-0.7485
7.504E-5,-0.7485
7.508E-5,-0.7485
7.514E-5,-0.7485
7.525E-5,-0.7485
7.547E-5,-0.7485
7.574E-5,-0.7485
7.600E-5,-0.7485
7.601E-5,-0.7485
7.603E-5,-0.7485
7.607E-5,-0.7485
7.615E-5,-0.7485
7.631E-5,-0.7485
7.663E-5,-0.7485
7.701E-5,-0.7485
7.702E-5,-0.7485
7.704E-5,-0.7485
7.708E-5,-0.7485
7.712E-5,-0.7485
7.72E-5,-0.7485
7.735E-5,-0.7485
7.766E-5,-0.7485
7.8E-5,-0.7484
7.801E-5,-0.7367
7.803E-5,-0.7367
7.806E-5,-0.7367
7.808E-5,-0.7367
7.814E-5,-0.7367
7.824E-5,-0.7367
7.845E-5,-0.7367
7.873E-5,-0.7367
7.901E-5,-0.7367
7.902E-5,-0.7367
7.904E-5,-0.7367
7.908E-5,-0.7367
7.911E-5,-0.7367
7.917E-5,-0.7367
7.928E-5,-0.7367
7.952E-5,-0.7366
7.976E-5,-0.7366
8.0E-5,-0.7366
8.001E-5,-0.7133
8.003E-5,-0.7133
8.005E-5,-0.7133
8.007E-5,-0.7133
8.011E-5,-0.7133
8.019E-5,-0.7133
8.035E-5,-0.7133
8.067E-5,-0.7133
8.101E-5,-0.7133
8.102E-5,-0.7133
8.104E-5,-0.7133
8.106E-5,-0.7133
8.109E-5,-0.7133
8.113E-5,-0.7133
8.123E-5,-0.7133
8.141E-5,-0.7132
8.17E-5,-0.7131
8.2E-5,-0.7130
8.201E-5,-0.6786
8.202E-5,-0.6786
8.204E-5,-0.6786
8.205E-5,-0.6786
8.208E-5,-0.6786
8.214E-5,-0.6786
8.225E-5,-0.6786
8.248E-5,-0.6786
8.274E-5,-0.6786
8.301E-5,-0.6786
8.302E-5,-0.6786
8.304E-5,-0.6786
8.306E-5,-0.6786
8.308E-5,-0.6786
8.312E-5,-0.6786
8.32E-5,-0.6786
8.337E-5,-0.6785
8.370E-5,-0.6784
8.4E-5,-0.6783
8.401E-5,-0.6332
8.402E-5,-0.6332
8.403E-5,-0.6332
8.405E-5,-0.6332
8.407E-5,-0.6332
8.412E-5,-0.6332
8.422E-5,-0.6332
8.441E-5,-0.6332
8.471E-5,-0.6332
8.501E-5,-0.6332
8.502E-5,-0.6332
8.503E-5,-0.6332
8.505E-5,-0.6332
8.507E-5,-0.6332
8.51E-5,-0.6332
8.517E-5,-0.6332
8.53E-5,-0.6332
8.556E-5,-0.6331
8.6E-5,-0.6328
8.601E-5,-0.5779
8.602E-5,-0.5779
8.603E-5,-0.5779
8.604E-5,-0.5779
8.606E-5,-0.5779
8.611E-5,-0.5779
8.620E-5,-0.5779
8.637E-5,-0.5779
8.672E-5,-0.5779
8.701E-5,-0.5779
8.702E-5,-0.5779
8.703E-5,-0.5779
8.705E-5,-0.5779
8.706E-5,-0.5779
8.709E-5,-0.5779
8.715E-5,-0.5778
8.727E-5,-0.5778
8.752E-5,-0.5777
8.776E-5,-0.5776
8.8E-5,-0.5774
8.801E-5,-0.5134
8.802E-5,-0.5134
8.802E-5,-0.5134
8.803E-5,-0.5134
8.803E-5,-0.5134
8.803E-5,-0.5134
8.804E-5,-0.5134
8.804E-5,-0.5134
8.804E-5,-0.5134
8.805E-5,-0.5134
8.808E-5,-0.5134
8.812E-5,-0.5134
8.821E-5,-0.5134
8.838E-5,-0.5134
8.873E-5,-0.5134
8.901E-5,-0.5134
8.902E-5,-0.5134
8.903E-5,-0.5134
8.905E-5,-0.5134
8.906E-5,-0.5134
8.909E-5,-0.5134
8.914E-5,-0.5134
8.926E-5,-0.5133
8.948E-5,-0.5132
8.974E-5,-0.5131
9.0E-5,-0.5129
9.001E-5,-0.4408
9.002E-5,-0.4408
9.003E-5,-0.4408
9.004E-5,-0.4408
9.006E-5,-0.4408
9.009E-5,-0.4408
9.017E-5,-0.4408
9.032E-5,-0.4408
9.063E-5,-0.4408
9.101E-5,-0.4408
9.102E-5,-0.4408
9.103E-5,-0.4408
9.105E-5,-0.4408
9.106E-5,-0.4408
9.109E-5,-0.4408
9.114E-5,-0.4408
9.125E-5,-0.4407
9.146E-5,-0.4406
9.173E-5,-0.4405
9.200E-5,-0.4403
9.201E-5,-0.3613
9.202E-5,-0.3613
9.203E-5,-0.3613
9.204E-5,-0.3613
9.205E-5,-0.3613
9.209E-5,-0.3613
9.216E-5,-0.3613
9.231E-5,-0.3613
9.26E-5,-0.3613
9.301E-5,-0.3613
9.302E-5,-0.3613
9.303E-5,-0.3613
9.304E-5,-0.3613
9.306E-5,-0.3613
9.308E-5,-0.3613
9.313E-5,-0.3613
9.324E-5,-0.3612
9.344E-5,-0.3611
9.372E-5,-0.3609
9.4E-5,-0.3607
9.401E-5,-0.2761
9.401E-5,-0.2761
9.402E-5,-0.2761
9.402E-5,-0.2761
9.403E-5,-0.2761
9.403E-5,-0.2761
9.403E-5,-0.2761
9.403E-5,-0.2761
9.403E-5,-0.2761
9.404E-5,-0.2761
9.404E-5,-0.2761
9.405E-5,-0.2761
9.407E-5,-0.2761
9.41E-5,-0.2761
9.417E-5,-0.2761
9.431E-5,-0.2761
9.459E-5,-0.2761
9.501E-5,-0.2761
9.502E-5,-0.2761
9.503E-5,-0.2761
9.504E-5,-0.2761
9.506E-5,-0.2761
9.508E-5,-0.2761
9.513E-5,-0.2760
9.523E-5,-0.2760
9.543E-5,-0.2759
9.571E-5,-0.2757
9.6E-5,-0.2754
9.601E-5,-0.1865
9.602E-5,-0.1865
9.603E-5,-0.1865
9.603E-5,-0.1865
9.605E-5,-0.1865
9.609E-5,-0.1865
9.615E-5,-0.1865
9.629E-5,-0.1865
9.656E-5,-0.1865
9.701E-5,-0.1865
9.702E-5,-0.1865
9.703E-5,-0.1865
9.704E-5,-0.1865
9.706E-5,-0.1865
9.708E-5,-0.1865
9.713E-5,-0.1865
9.723E-5,-0.1864
9.742E-5,-0.1863
9.771E-5,-0.1861
9.8E-5,-0.1858
9.801E-5,-0.09401
9.802E-5,-0.09401
9.803E-5,-0.09401
9.803E-5,-0.09401
9.805E-5,-0.09401
9.808E-5,-0.09401
9.815E-5,-0.09401
9.829E-5,-0.09401
9.855E-5,-0.09401
9.901E-5,-0.09401
9.902E-5,-0.09400
9.903E-5,-0.09400
9.904E-5,-0.09399
9.905E-5,-0.09399
9.908E-5,-0.09397
9.913E-5,-0.09395
9.922E-5,-0.09390
9.942E-5,-0.09378
9.971E-5,-0.09356
1.0E-4,-0.09331
1.0E-4,-8.813E-6
1.0E-4,-8.812E-6
1.0E-4,-8.812E-6
1.0E-4,-8.812E-6
1.001E-4,-8.812E-6
1.001E-4,-8.812E-6
1.002E-4,-8.812E-6
1.003E-4,-8.812E-6
1.006E-4,-8.812E-6
1.01E-4,-8.811E-6
1.01E-4,-4.055E-6
1.01E-4,1.029E-6
1.01E-4,5.904E-6
1.01E-4,7.607E-6
1.01E-4,9.215E-6
1.011E-4,1.083E-5
1.011E-4,1.203E-5
1.011E-4,1.341E-5
1.011E-4,1.477E-5
1.011E-4,1.749E-5
1.011E-4,2.298E-5
1.011E-4,3.412E-5
1.011E-4,5.707E-5
1.012E-4,1.056E-4
1.014E-4,2.133E-4
1.018E-4,4.709E-4
1.02E-4,6.891E-4
1.02E-4,0.09400
1.02E-4,0.09400
1.02E-4,0.09400
1.02E-4,0.09400
1.021E-4,0.09400
1.021E-4,0.09400
1.022E-4,0.09400
1.023E-4,0.09400
1.026E-4,0.09400
1.03E-4,0.09400
1.03E-4,0.09400
1.03E-4,0.09400
1.03E-4,0.09401
1.031E-4,0.09402
1.031E-4,0.09403
1.031E-4,0.09405
1.032E-4,0.09411
1.034E-4,0.09422
1.037E-4,0.09444
1.04E-4,0.09468
1.04E-4,0.1865
1.04E-4,0.1865
1.04E-4,0.1865
1.04E-4,0.1865
1.041E-4,0.1865
1.041E-4,0.1865
1.042E-4,0.1865
1.043E-4,0.1865
1.046E-4,0.1865
1.05E-4,0.1865
1.05E-4,0.1865
1.05E-4,0.1865
1.05E-4,0.1865
1.051E-4,0.1865
1.051E-4,0.1865
1.051E-4,0.1866
1.052E-4,0.1866
1.054E-4,0.1867
1.057E-4,0.1869
1.06E-4,0.1872
1.06E-4,0.2761
1.06E-4,0.2761
1.06E-4,0.2761
1.06E-4,0.2761
1.061E-4,0.2761
1.061E-4,0.2761
1.062E-4,0.2761
1.063E-4,0.2761
1.066E-4,0.2761
1.07E-4,0.2761
1.07E-4,0.2761
1.07E-4,0.2761
1.07E-4,0.2761
1.071E-4,0.2761
1.071E-4,0.2761
1.071E-4,0.2761
1.072E-4,0.2762
1.074E-4,0.2763
1.077E-4,0.2765
1.08E-4,0.2767
1.08E-4,0.3613
1.08E-4,0.3613
1.08E-4,0.3613
1.08E-4,0.3613
1.08E-4,0.3613
1.08E-4,0.3613
1.08E-4,0.3613
1.08E-4,0.3613
1.08E-4,0.3613
1.08E-4,0.3613
1.08E-4,0.3613
1.08E-4,0.3613
1.081E-4,0.3613
1.081E-4,0.3613
1.082E-4,0.3613
1.083E-4,0.3613
1.086E-4,0.3613
1.09E-4,0.3613
1.09E-4,0.3613
1.09E-4,0.3613
1.09E-4,0.3613
1.091E-4,0.3613
1.091E-4,0.3613
1.091E-4,0.3614
1.092E-4,0.3614
1.094E-4,0.3615
1.097E-4,0.3617
1.1E-4,0.3619
1.1E-4,0.4408
1.1E-4,0.4408
1.1E-4,0.4408
1.1E-4,0.4408
1.101E-4,0.4408
1.101E-4,0.4408
1.102E-4,0.4408
1.103E-4,0.4408
1.106E-4,0.4408
1.11E-4,0.4408
1.11E-4,0.4408
1.11E-4,0.4408
1.11E-4,0.4408
1.111E-4,0.4409
1.111E-4,0.4409
1.111E-4,0.4409
1.113E-4,0.4409
1.115E-4,0.4410
1.117E-4,0.4412
1.12E-4,0.4414
1.12E-4,0.5134
1.12E-4,0.5134
1.12E-4,0.5134
1.12E-4,0.5134
1.121E-4,0.5134
1.121E-4,0.5134
1.122E-4,0.5134
1.123E-4,0.5134
1.126E-4,0.5134
1.130E-4,0.5134
1.130E-4,0.5134
1.130E-4,0.5134
1.130E-4,0.5134
1.131E-4,0.5134
1.131E-4,0.5134
1.131E-4,0.5135
1.133E-4,0.5135
1.135E-4,0.5136
1.137E-4,0.5137
1.140E-4,0.5139
1.140E-4,0.5779
1.140E-4,0.5779
1.140E-4,0.5779
1.140E-4,0.5779
1.140E-4,0.5779
1.140E-4,0.5779
1.140E-4,0.5779
1.140E-4,0.5779
1.140E-4,0.5779
1.141E-4,0.5779
1.141E-4,0.5779
1.141E-4,0.5779
1.142E-4,0.5779
1.144E-4,0.5779
1.147E-4,0.5779
1.150E-4,0.5779
1.150E-4,0.5779
1.150E-4,0.5779
1.150E-4,0.5779
1.151E-4,0.5779
1.151E-4,0.5779
1.152E-4,0.5779
1.153E-4,0.5780
1.155E-4,0.5781
1.16E-4,0.5783
1.16E-4,0.6332
1.16E-4,0.6332
1.16E-4,0.6332
1.16E-4,0.6332
1.161E-4,0.6332
1.161E-4,0.6332
1.162E-4,0.6332
1.164E-4,0.6332
1.167E-4,0.6332
1.17E-4,0.6332
1.17E-4,0.6332
1.17E-4,0.6333
1.171E-4,0.6333
1.171E-4,0.6333
1.171E-4,0.6333
1.172E-4,0.6333
1.174E-4,0.6333
1.177E-4,0.6335
1.18E-4,0.6336
1.18E-4,0.6786
1.18E-4,0.6786
1.18E-4,0.6786
1.18E-4,0.6786
1.181E-4,0.6786
1.181E-4,0.6786
1.182E-4,0.6786
1.184E-4,0.6786
1.187E-4,0.6786
1.19E-4,0.6786
1.19E-4,0.6786
1.19E-4,0.6786
1.191E-4,0.6786
1.191E-4,0.6786
1.191E-4,0.6786
1.192E-4,0.6787
1.194E-4,0.6787
1.197E-4,0.6788
1.2E-4,0.6789
1.2E-4,0.7133
1.2E-4,0.7133
1.2E-4,0.7133
1.201E-4,0.7133
1.201E-4,0.7133
1.201E-4,0.7133
1.202E-4,0.7133
1.205E-4,0.7133
1.207E-4,0.7133
1.21E-4,0.7133
1.21E-4,0.7133
1.21E-4,0.7133
1.211E-4,0.7133
1.211E-4,0.7133
1.211E-4,0.7133
1.212E-4,0.7133
1.214E-4,0.7134
1.217E-4,0.7134
1.22E-4,0.7135
1.22E-4,0.7367
1.22E-4,0.7367
1.221E-4,0.7367
1.221E-4,0.7367
1.221E-4,0.7367
1.222E-4,0.7367
1.223E-4,0.7367
1.227E-4,0.7367
1.23E-4,0.7367
1.23E-4,0.7367
1.23E-4,0.7367
1.231E-4,0.7367
1.231E-4,0.7367
1.232E-4,0.7367
1.233E-4,0.7367
1.236E-4,0.7368
1.24E-4,0.7368
1.24E-4,0.7485
1.24E-4,0.7485
1.241E-4,0.7485
1.241E-4,0.7485
1.241E-4,0.7485
1.242E-4,0.7485
1.244E-4,0.7485
1.247E-4,0.7485
1.25E-4,0.7485
1.25E-4,0.7485
1.25E-4,0.7485
1.251E-4,0.7485
1.251E-4,0.7485
1.252E-4,0.7485
1.255E-4,0.7485
1.257E-4,0.7485
1.26E-4,0.7485
1.26E-4,0.7485
1.26E-4,0.7485
1.261E-4,0.7485
1.262E-4,0.7485
1.263E-4,0.7485
1.266E-4,0.7485
1.27E-4,0.7485
1.27E-4,0.7485
1.27E-4,0.7485
1.271E-4,0.7485
1.271E-4,0.7485
1.272E-4,0.7485
1.273E-4,0.7485
1.277E-4,0.7485
1.28E-4,0.7484
1.28E-4,0.7367
1.28E-4,0.7367
1.281E-4,0.7367
1.281E-4,0.7367
1.281E-4,0.7367
1.282E-4,0.7367
1.284E-4,0.7367
1.287E-4,0.7367
1.29E-4,0.7367
1.29E-4,0.7367
1.29E-4,0.7367
1.291E-4,0.7367
1.291E-4,0.7367
1.292E-4,0.7367
1.293E-4,0.7367
1.295E-4,0.7366
1.298E-4,0.7366
1.3E-4,0.7366
1.3E-4,0.7133
1.3E-4,0.7133
1.301E-4,0.7133
1.301E-4,0.7133
1.301E-4,0.7133
1.302E-4,0.7133
1.303E-4,0.7133
1.307E-4,0.7133
1.31E-4,0.7133
1.31E-4,0.7133
1.31E-4,0.7133
1.311E-4,0.7133
1.311E-4,0.7133
1.311E-4,0.7133
1.312E-4,0.7133
1.314E-4,0.7132
1.317E-4,0.7131
1.32E-4,0.7130
1.32E-4,0.6786
1.32E-4,0.6786
1.32E-4,0.6786
1.321E-4,0.6786
1.321E-4,0.6786
1.321E-4,0.6786
1.322E-4,0.6786
1.325E-4,0.6786
1.327E-4,0.6786
1.33E-4,0.6786
1.33E-4,0.6786
1.33E-4,0.6786
1.331E-4,0.6786
1.331E-4,0.6786
1.331E-4,0.6786
1.332E-4,0.6786
1.334E-4,0.6785
1.337E-4,0.6784
1.34E-4,0.6783
1.34E-4,0.6332
1.34E-4,0.6332
1.34E-4,0.6332
1.34E-4,0.6332
1.341E-4,0.6332
1.341E-4,0.6332
1.342E-4,0.6332
1.344E-4,0.6332
1.347E-4,0.6332
1.35E-4,0.6332
1.35E-4,0.6332
1.35E-4,0.6332
1.351E-4,0.6332
1.351E-4,0.6332
1.351E-4,0.6332
1.352E-4,0.6332
1.353E-4,0.6332
1.356E-4,0.6331
1.36E-4,0.6328
1.36E-4,0.5779
1.36E-4,0.5779
1.36E-4,0.5779
1.36E-4,0.5779
1.361E-4,0.5779
1.361E-4,0.5779
1.362E-4,0.5779
1.364E-4,0.5779
1.367E-4,0.5779
1.37E-4,0.5779
1.37E-4,0.5779
1.37E-4,0.5779
1.37E-4,0.5779
1.371E-4,0.5779
1.371E-4,0.5779
1.372E-4,0.5778
1.373E-4,0.5778
1.375E-4,0.5777
1.378E-4,0.5776
1.380E-4,0.5774
1.380E-4,0.5134
1.380E-4,0.5134
1.380E-4,0.5134
1.380E-4,0.5134
1.380E-4,0.5134
1.380E-4,0.5134
1.380E-4,0.5134
1.380E-4,0.5134
1.380E-4,0.5134
1.381E-4,0.5134
1.381E-4,0.5134
1.381E-4,0.5134
1.382E-4,0.5134
1.384E-4,0.5134
1.387E-4,0.5134
1.390E-4,0.5134
1.390E-4,0.5134
1.390E-4,0.5134
1.390E-4,0.5134
1.391E-4,0.5134
1.391E-4,0.5134
1.391E-4,0.5134
1.393E-4,0.5133
1.395E-4,0.5132
1.397E-4,0.5131
1.400E-4,0.5129
1.400E-4,0.4408
1.400E-4,0.4408
1.400E-4,0.4408
1.400E-4,0.4408
1.401E-4,0.4408
1.401E-4,0.4408
1.402E-4,0.4408
1.403E-4,0.4408
1.406E-4,0.4408
1.41E-4,0.4408
1.41E-4,0.4408
1.41E-4,0.4408
1.41E-4,0.4408
1.411E-4,0.4408
1.411E-4,0.4408
1.411E-4,0.4408
1.412E-4,0.4407
1.415E-4,0.4406
1.417E-4,0.4405
1.42E-4,0.4403
1.42E-4,0.3613
1.42E-4,0.3613
1.42E-4,0.3613
1.42E-4,0.3613
1.421E-4,0.3613
1.421E-4,0.3613
1.422E-4,0.3613
1.423E-4,0.3613
1.426E-4,0.3613
1.43E-4,0.3613
1.43E-4,0.3613
1.43E-4,0.3613
1.43E-4,0.3613
1.431E-4,0.3613
1.431E-4,0.3613
1.431E-4,0.3613
1.432E-4,0.3612
1.434E-4,0.3611
1.437E-4,0.3609
1.44E-4,0.3607
1.44E-4,0.2761
1.44E-4,0.2761
1.44E-4,0.2761
1.44E-4,0.2761
1.44E-4,0.2761
1.44E-4,0.2761
1.44E-4,0.2761
1.44E-4,0.2761
1.44E-4,0.2761
1.44E-4,0.2761
1.44E-4,0.2761
1.44E-4,0.2761
1.441E-4,0.2761
1.441E-4,0.2761
1.442E-4,0.2761
1.443E-4,0.2761
1.446E-4,0.2761
1.45E-4,0.2761
1.45E-4,0.2761
1.45E-4,0.2761
1.45E-4,0.2761
1.451E-4,0.2761
1.451E-4,0.2761
1.451E-4,0.2760
1.452E-4,0.2760
1.454E-4,0.2759
1.457E-4,0.2757
1.46E-4,0.2754
1.46E-4,0.1865
1.46E-4,0.1865
1.46E-4,0.1865
1.46E-4,0.1865
1.461E-4,0.1865
1.461E-4,0.1865
1.462E-4,0.1865
1.463E-4,0.1865
1.466E-4,0.1865
1.47E-4,0.1865
1.47E-4,0.1865
1.47E-4,0.1865
1.47E-4,0.1865
1.471E-4,0.1865
1.471E-4,0.1865
1.471E-4,0.1865
1.472E-4,0.1864
1.474E-4,0.1863
1.477E-4,0.1861
1.48E-4,0.1858
1.48E-4,0.09401
1.48E-4,0.09401
1.48E-4,0.09401
1.48E-4,0.09401
1.481E-4,0.09401
1.481E-4,0.09401
1.482E-4,0.09401
1.483E-4,0.09401
1.486E-4,0.09401
1.49E-4,0.09401
1.49E-4,0.09400
1.49E-4,0.09400
1.49E-4,0.09399
1.491E-4,0.09399
1.491E-4,0.09397
1.491E-4,0.09395
1.492E-4,0.09390
1.494E-4,0.09378
1.497E-4,0.09356
1.5E-4,0.09331
1.5E-4,8.813E-6
1.5E-4,8.812E-6
1.5E-4,8.812E-6
1.5E-4,8.812E-6
1.501E-4,8.812E-6
1.501E-4,8.812E-6
1.502E-4,8.812E-6
1.503E-4,8.812E-6
1.506E-4,8.812E-6
1.51E-4,8.811E-6
1.51E-4,4.055E-6
1.51E-4,-1.029E-6
1.51E-4,-5.904E-6
1.51E-4,-7.607E-6
1.51E-4,-9.215E-6
1.511E-4,-1.083E-5
1.511E-4,-1.203E-5
1.511E-4,-1.341E-5
1.511E-4,-1.477E-5
1.511E-4,-1.749E-5
1.511E-4,-2.298E-5
1.511E-4,-3.412E-5
1.511E-4,-5.707E-5
1.512E-4,-1.056E-4
1.514E-4,-2.133E-4
1.518E-4,-4.709E-4
1.52E-4,-6.891E-4
1.52E-4,-0.09400
1.52E-4,-0.09400
1.52E-4,-0.09400
1.52E-4,-0.09400
1.521E-4,-0.09400
1.521E-4,-0.09400
1.522E-4,-0.09400
1.523E-4,-0.09400
1.526E-4,-0.09400
1.53E-4,-0.09400
1.53E-4,-0.09400
1.53E-4,-0.09400
1.53E-4,-0.09401
1.531E-4,-0.09402
1.531E-4,-0.09403
1.531E-4,-0.09405
1.532E-4,-0.09411
1.534E-4,-0.09422
1.537E-4,-0.09444
1.54E-4,-0.09468
1.54E-4,-0.1865
1.54E-4,-0.1865
1.54E-4,-0.1865
1.54E-4,-0.1865
1.541E-4,-0.1865
1.541E-4,-0.1865
1.542E-4,-0.1865
1.543E-4,-0.1865
1.546E-4,-0.1865
1.55E-4,-0.1865
1.55E-4,-0.1865
1.55E-4,-0.1865
1.55E-4,-0.1865
1.551E-4,-0.1865
1.551E-4,-0.1865
1.551E-4,-0.1866
1.552E-4,-0.1866
1.554E-4,-0.1867
1.557E-4,-0.1869
1.56E-4,-0.1872
1.56E-4,-0.2761
1.56E-4,-0.2761
1.56E-4,-0.2761
1.56E-4,-0.2761
1.561E-4,-0.2761
1.561E-4,-0.2761
1.562E-4,-0.2761
1.563E-4,-0.2761
1.566E-4,-0.2761
1.57E-4,-0.2761
1.57E-4,-0.2761
1.57E-4,-0.2761
1.57E-4,-0.2761
1.571E-4,-0.2761
1.571E-4,-0.2761
1.571E-4,-0.2761
1.572E-4,-0.2762
1.574E-4,-0.2763
1.577E-4,-0.2765
1.58E-4,-0.2767
1.58E-4,-0.3613
1.58E-4,-0.3613
1.58E-4,-0.3613
1.58E-4,-0.3613
1.58E-4,-0.3613
1.58E-4,-0.3613
1.58E-4,-0.3613
1.58E-4,-0.3613
1.58E-4,-0.3613
1.58E-4,-0.3613
1.58E-4,-0.3613
1.58E-4,-0.3613
1.581E-4,-0.3613
1.581E-4,-0.3613
1.582E-4,-0.3613
1.583E-4,-0.3613
1.586E-4,-0.3613
1.59E-4,-0.3613
1.59E-4,-0.3613
1.59E-4,-0.3613
1.59E-4,-0.3613
1.591E-4,-0.3613
1.591E-4,-0.3613
1.591E-4,-0.3614
1.592E-4,-0.3614
1.594E-4,-0.3615
1.597E-4,-0.3617
1.6E-4,-0.3619
1.6E-4,-0.4408
1.6E-4,-0.4408
1.6E-4,-0.4408
1.6E-4,-0.4408
1.601E-4,-0.4408
1.601E-4,-0.4408
1.602E-4,-0.4408
1.603E-4,-0.4408
1.606E-4,-0.4408
1.61E-4,-0.4408
1.61E-4,-0.4408
1.61E-4,-0.4408
1.61E-4,-0.4408
1.611E-4,-0.4409
1.611E-4,-0.4409
1.611E-4,-0.4409
1.613E-4,-0.4409
1.615E-4,-0.4410
1.617E-4,-0.4412
1.62E-4,-0.4414
1.62E-4,-0.5134
1.62E-4,-0.5134
1.62E-4,-0.5134
1.62E-4,-0.5134
1.621E-4,-0.5134
1.621E-4,-0.5134
1.622E-4,-0.5134
1.623E-4,-0.5134
1.626E-4,-0.5134
1.630E-4,-0.5134
1.630E-4,-0.5134
1.630E-4,-0.5134
1.630E-4,-0.5134
1.631E-4,-0.5134
1.631E-4,-0.5134
1.631E-4,-0.5135
1.633E-4,-0.5135
1.635E-4,-0.5136
1.637E-4,-0.5137
1.640E-4,-0.5139
1.640E-4,-0.5779
1.640E-4,-0.5779
1.640E-4,-0.5779
1.640E-4,-0.5779
1.640E-4,-0.5779
1.640E-4,-0.5779
1.640E-4,-0.5779
1.640E-4,-0.5779
1.640E-4,-0.5779
1.641E-4,-0.5779
1.641E-4,-0.5779
1.641E-4,-0.5779
1.642E-4,-0.5779
1.644E-4,-0.5779
1.647E-4,-0.5779
1.650E-4,-0.5779
1.650E-4,-0.5779
1.650E-4,-0.5779
1.650E-4,-0.5779
1.651E-4,-0.5779
1.651E-4,-0.5779
1.652E-4,-0.5779
1.653E-4,-0.5780
1.655E-4,-0.5781
1.660E-4,-0.5783
1.660E-4,-0.6332
1.660E-4,-0.6332
1.660E-4,-0.6332
1.660E-4,-0.6332
1.661E-4,-0.6332
1.661E-4,-0.6332
1.662E-4,-0.6332
1.664E-4,-0.6332
1.667E-4,-0.6332
1.67E-4,-0.6332
1.67E-4,-0.6332
1.67E-4,-0.6333
1.671E-4,-0.6333
1.671E-4,-0.6333
1.671E-4,-0.6333
1.672E-4,-0.6333
1.674E-4,-0.6333
1.677E-4,-0.6335
1.68E-4,-0.6336
1.68E-4,-0.6786
1.68E-4,-0.6786
1.68E-4,-0.6786
1.68E-4,-0.6786
1.681E-4,-0.6786
1.681E-4,-0.6786
1.682E-4,-0.6786
1.684E-4,-0.6786
1.687E-4,-0.6786
1.69E-4,-0.6786
1.69E-4,-0.6786
1.69E-4,-0.6786
1.691E-4,-0.6786
1.691E-4,-0.6786
1.691E-4,-0.6786
1.692E-4,-0.6787
1.694E-4,-0.6787
1.697E-4,-0.6788
1.7E-4,-0.6789
1.7E-4,-0.7133
1.7E-4,-0.7133
1.7E-4,-0.7133
1.701E-4,-0.7133
1.701E-4,-0.7133
1.701E-4,-0.7133
1.702E-4,-0.7133
1.705E-4,-0.7133
1.707E-4,-0.7133
1.71E-4,-0.7133
1.71E-4,-0.7133
1.71E-4,-0.7133
1.711E-4,-0.7133
1.711E-4,-0.7133
1.711E-4,-0.7133
1.712E-4,-0.7133
1.714E-4,-0.7134
1.717E-4,-0.7134
1.72E-4,-0.7135
1.72E-4,-0.7367
1.72E-4,-0.7367
1.721E-4,-0.7367
1.721E-4,-0.7367
1.721E-4,-0.7367
1.722E-4,-0.7367
1.723E-4,-0.7367
1.727E-4,-0.7367
1.73E-4,-0.7367
1.73E-4,-0.7367
1.73E-4,-0.7367
1.731E-4,-0.7367
1.731E-4,-0.7367
1.732E-4,-0.7367
1.733E-4,-0.7367
1.736E-4,-0.7368
1.74E-4,-0.7368
1.74E-4,-0.7485
1.74E-4,-0.7485
1.741E-4,-0.7485
1.741E-4,-0.7485
1.741E-4,-0.7485
1.742E-4,-0.7485
1.744E-4,-0.7485
1.747E-4,-0.7485
1.75E-4,-0.7485
1.75E-4,-0.7485
1.75E-4,-0.7485
1.751E-4,-0.7485
1.751E-4,-0.7485
1.752E-4,-0.7485
1.755E-4,-0.7485
1.757E-4,-0.7485
1.76E-4,-0.7485
1.76E-4,-0.7485
1.76E-4,-0.7485
1.761E-4,-0.7485
1.762E-4,-0.7485
1.763E-4,-0.7485
1.766E-4,-0.7485
1.77E-4,-0.7485
1.77E-4,-0.7485
1.77E-4,-0.7485
1.771E-4,-0.7485
1.771E-4,-0.7485
1.772E-4,-0.7485
1.773E-4,-0.7485
1.777E-4,-0.7485
1.78E-4,-0.7484
1.78E-4,-0.7367
1.78E-4,-0.7367
1.781E-4,-0.7367
1.781E-4,-0.7367
1.781E-4,-0.7367
1.782E-4,-0.7367
1.784E-4,-0.7367
1.787E-4,-0.7367
1.79E-4,-0.7367
1.79E-4,-0.7367
1.79E-4,-0.7367
1.791E-4,-0.7367
1.791E-4,-0.7367
1.792E-4,-0.7367
1.793E-4,-0.7367
1.795E-4,-0.7366
1.798E-4,-0.7366
1.8E-4,-0.7366
1.8E-4,-0.7133
1.8E-4,-0.7133
1.801E-4,-0.7133
1.801E-4,-0.7133
1.801E-4,-0.7133
1.802E-4,-0.7133
1.803E-4,-0.7133
1.807E-4,-0.7133
1.81E-4,-0.7133
1.81E-4,-0.7133
1.81E-4,-0.7133
1.811E-4,-0.7133
1.811E-4,-0.7133
1.811E-4,-0.7133
1.812E-4,-0.7133
1.814E-4,-0.7132
1.817E-4,-0.7131
1.82E-4,-0.7130
1.82E-4,-0.6786
1.82E-4,-0.6786
1.82E-4,-0.6786
1.821E-4,-0.6786
1.821E-4,-0.6786
1.821E-4,-0.6786
1.822E-4,-0.6786
1.825E-4,-0.6786
1.827E-4,-0.6786
1.83E-4,-0.6786
1.83E-4,-0.6786
1.83E-4,-0.6786
1.831E-4,-0.6786
1.831E-4,-0.6786
1.831E-4,-0.6786
1.832E-4,-0.6786
1.834E-4,-0.6785
1.837E-4,-0.6784
1.84E-4,-0.6783
1.84E-4,-0.6332
1.84E-4,-0.6332
1.84E-4,-0.6332
1.84E-4,-0.6332
1.841E-4,-0.6332
1.841E-4,-0.6332
1.842E-4,-0.6332
1.844E-4,-0.6332
1.847E-4,-0.6332
1.85E-4,-0.6332
1.85E-4,-0.6332
1.85E-4,-0.6332
1.851E-4,-0.6332
1.851E-4,-0.6332
1.851E-4,-0.6332
1.852E-4,-0.6332
1.853E-4,-0.6332
1.856E-4,-0.6331
1.86E-4,-0.6328
1.86E-4,-0.5779
1.86E-4,-0.5779
1.86E-4,-0.5779
1.86E-4,-0.5779
1.861E-4,-0.5779
1.861E-4,-0.5779
1.862E-4,-0.5779
1.864E-4,-0.5779
1.867E-4,-0.5779
1.87E-4,-0.5779
1.87E-4,-0.5779
1.87E-4,-0.5779
1.87E-4,-0.5779
1.871E-4,-0.5779
1.871E-4,-0.5779
1.872E-4,-0.5778
1.873E-4,-0.5778
1.875E-4,-0.5777
1.878E-4,-0.5776
1.880E-4,-0.5774
1.880E-4,-0.5134
1.880E-4,-0.5134
1.880E-4,-0.5134
1.880E-4,-0.5134
1.880E-4,-0.5134
1.880E-4,-0.5134
1.880E-4,-0.5134
1.880E-4,-0.5134
1.880E-4,-0.5134
1.881E-4,-0.5134
1.881E-4,-0.5134
1.881E-4,-0.5134
1.882E-4,-0.5134
1.884E-4,-0.5134
1.887E-4,-0.5134
1.890E-4,-0.5134
1.890E-4,-0.5134
1.890E-4,-0.5134
1.890E-4,-0.5134
1.891E-4,-0.5134
1.891E-4,-0.5134
1.891E-4,-0.5134
1.893E-4,-0.5133
1.895E-4,-0.5132
1.897E-4,-0.5131
1.900E-4,-0.5129
1.900E-4,-0.4408
1.900E-4,-0.4408
1.900E-4,-0.4408
1.900E-4,-0.4408
1.901E-4,-0.4408
1.901E-4,-0.4408
1.902E-4,-0.4408
1.903E-4,-0.4408
1.906E-4,-0.4408
1.910E-4,-0.4408
1.910E-4,-0.4408
1.910E-4,-0.4408
1.910E-4,-0.4408
1.911E-4,-0.4408
1.911E-4,-0.4408
1.911E-4,-0.4408
1.912E-4,-0.4407
1.915E-4,-0.4406
1.917E-4,-0.4405
1.92E-4,-0.4403
1.92E-4,-0.3613
1.92E-4,-0.3613
1.92E-4,-0.3613
1.92E-4,-0.3613
1.921E-4,-0.3613
1.921E-4,-0.3613
1.922E-4,-0.3613
1.923E-4,-0.3613
1.926E-4,-0.3613
1.93E-4,-0.3613
1.93E-4,-0.3613
1.93E-4,-0.3613
1.93E-4,-0.3613
1.931E-4,-0.3613
1.931E-4,-0.3613
1.931E-4,-0.3613
1.932E-4,-0.3612
1.934E-4,-0.3611
1.937E-4,-0.3609
1.94E-4,-0.3607
1.94E-4,-0.2761
1.94E-4,-0.2761
1.94E-4,-0.2761
1.94E-4,-0.2761
1.94E-4,-0.2761
1.94E-4,-0.2761
1.94E-4,-0.2761
1.94E-4,-0.2761
1.94E-4,-0.2761
1.94E-4,-0.2761
1.94E-4,-0.2761
1.94E-4,-0.2761
1.941E-4,-0.2761
1.941E-4,-0.2761
1.942E-4,-0.2761
1.943E-4,-0.2761
1.946E-4,-0.2761
1.95E-4,-0.2761
1.95E-4,-0.2761
1.95E-4,-0.2761
1.95E-4,-0.2761
1.951E-4,-0.2761
1.951E-4,-0.2761
1.951E-4,-0.2760
1.952E-4,-0.2760
1.954E-4,-0.2759
1.957E-4,-0.2757
1.96E-4,-0.2754
1.96E-4,-0.1865
1.96E-4,-0.1865
1.96E-4,-0.1865
1.96E-4,-0.1865
1.961E-4,-0.1865
1.961E-4,-0.1865
1.962E-4,-0.1865
1.963E-4,-0.1865
1.966E-4,-0.1865
1.97E-4,-0.1865
1.97E-4,-0.1865
1.97E-4,-0.1865
1.97E-4,-0.1865
1.971E-4,-0.1865
1.971E-4,-0.1865
1.971E-4,-0.1865
1.972E-4,-0.1864
1.974E-4,-0.1863
1.977E-4,-0.1861
1.98E-4,-0.1858
1.98E-4,-0.09401
1.98E-4,-0.09401
1.98E-4,-0.09401
1.98E-4,-0.09401
1.981E-4,-0.09401
1.981E-4,-0.09401
1.982E-4,-0.09401
1.983E-4,-0.09401
1.986E-4,-0.09401
1.99E-4,-0.09401
1.99E-4,-0.09400
1.99E-4,-0.09400
1.99E-4,-0.09399
1.991E-4,-0.09399
1.991E-4,-0.09397
1.991E-4,-0.09395
1.992E-4,-0.09390
1.994E-4,-0.09378
1.997E-4,-0.09356
2.0E-4,-0.09331
2.0E-4,-8.813E-6
2.0E-4,-8.812E-6
2.0E-4,-8.812E-6
2.0E-4,-8.812E-6
2.001E-4,-8.812E-6
2.001E-4,-8.812E-6
2.002E-4,-8.812E-6
2.003E-4,-8.812E-6
2.006E-4,-8.812E-6
2.010E-4,-8.811E-6
2.010E-4,-4.055E-6
2.010E-4,1.029E-6
2.010E-4,5.904E-6
2.010E-4,7.607E-6
2.010E-4,9.215E-6
2.011E-4,1.083E-5
2.011E-4,1.203E-5
2.011E-4,1.341E-5
2.011E-4,1.477E-5
2.011E-4,1.749E-5
2.011E-4,2.298E-5
2.011E-4,3.412E-5
2.011E-4,5.707E-5
2.012E-4,1.056E-4
2.014E-4,2.133E-4
2.018E-4,4.709E-4
2.02E-4,6.891E-4
2.02E-4,0.09400
2.02E-4,0.09400
2.02E-4,0.09400
2.02E-4,0.09400
2.021E-4,0.09400
2.021E-4,0.09400
2.022E-4,0.09400
2.023E-4,0.09400
2.026E-4,0.09400
2.030E-4,0.09400
2.030E-4,0.09400
2.030E-4,0.09400
2.030E-4,0.09401
2.031E-4,0.09402
2.031E-4,0.09403
2.031E-4,0.09405
2.032E-4,0.09411
2.034E-4,0.09422
2.037E-4,0.09444
2.04E-4,0.09468
2.04E-4,0.1865
2.04E-4,0.1865
2.04E-4,0.1865
2.04E-4,0.1865
2.041E-4,0.1865
2.041E-4,0.1865
2.042E-4,0.1865
2.043E-4,0.1865
2.046E-4,0.1865
2.05E-4,0.1865
2.05E-4,0.1865
2.05E-4,0.1865
2.05E-4,0.1865
2.051E-4,0.1865
2.051E-4,0.1865
2.051E-4,0.1866
2.052E-4,0.1866
2.054E-4,0.1867
2.057E-4,0.1869
2.06E-4,0.1872
2.06E-4,0.2761
2.06E-4,0.2761
2.06E-4,0.2761
2.06E-4,0.2761
2.061E-4,0.2761
2.061E-4,0.2761
2.062E-4,0.2761
2.063E-4,0.2761
2.066E-4,0.2761
2.07E-4,0.2761
2.07E-4,0.2761
2.07E-4,0.2761
2.07E-4,0.2761
2.071E-4,0.2761
2.071E-4,0.2761
2.071E-4,0.2761
2.072E-4,0.2762
2.074E-4,0.2763
2.077E-4,0.2765
2.08E-4,0.2767
2.08E-4,0.3613
2.08E-4,0.3613
2.08E-4,0.3613
2.08E-4,0.3613
2.08E-4,0.3613
2.08E-4,0.3613
2.08E-4,0.3613
2.08E-4,0.3613
2.08E-4,0.3613
2.08E-4,0.3613
2.08E-4,0.3613
2.08E-4,0.3613
2.081E-4,0.3613
2.081E-4,0.3613
2.082E-4,0.3613
2.083E-4,0.3613
2.086E-4,0.3613
2.09E-4,0.3613
2.09E-4,0.3613
2.09E-4,0.3613
2.09E-4,0.3613
2.091E-4,0.3613
2.091E-4,0.3613
2.091E-4,0.3614
2.092E-4,0.3614
2.094E-4,0.3615
2.097E-4,0.3617
2.1E-4,0.3619
2.1E-4,0.4408
2.1E-4,0.4408
2.1E-4,0.4408
2.1E-4,0.4408
2.101E-4,0.4408
2.101E-4,0.4408
2.102E-4,0.4408
2.103E-4,0.4408
2.106E-4,0.4408
2.11E-4,0.4408
2.11E-4,0.4408
2.11E-4,0.4408
2.11E-4,0.4408
2.111E-4,0.4409
2.111E-4,0.4409
2.111E-4,0.4409
2.113E-4,0.4409
2.115E-4,0.4410
2.117E-4,0.4412
2.12E-4,0.4414
2.12E-4,0.5134
2.12E-4,0.5134
2.12E-4,0.5134
2.12E-4,0.5134
2.121E-4,0.5134
2.121E-4,0.5134
2.122E-4,0.5134
2.123E-4,0.5134
2.126E-4,0.5134
2.13E-4,0.5134
2.13E-4,0.5134
2.13E-4,0.5134
2.13E-4,0.5134
2.131E-4,0.5134
2.131E-4,0.5134
2.131E-4,0.5135
2.133E-4,0.5135
2.135E-4,0.5136
2.137E-4,0.5137
2.14E-4,0.5139
2.14E-4,0.5779
2.14E-4,0.5779
2.14E-4,0.5779
2.14E-4,0.5779
2.14E-4,0.5779
2.14E-4,0.5779
2.14E-4,0.5779
2.14E-4,0.5779
2.14E-4,0.5779
2.141E-4,0.5779
2.141E-4,0.5779
2.141E-4,0.5779
2.142E-4,0.5779
2.144E-4,0.5779
2.147E-4,0.5779
2.15E-4,0.5779
2.15E-4,0.5779
2.15E-4,0.5779
2.15E-4,0.5779
2.151E-4,0.5779
2.151E-4,0.5779
2.152E-4,0.5779
2.153E-4,0.5780
2.155E-4,0.5781
2.16E-4,0.5783
2.16E-4,0.6332
2.16E-4,0.6332
2.16E-4,0.6332
2.16E-4,0.6332
2.161E-4,0.6332
2.161E-4,0.6332
2.162E-4,0.6332
2.164E-4,0.6332
2.167E-4,0.6332
2.17E-4,0.6332
2.17E-4,0.6332
2.17E-4,0.6333
2.171E-4,0.6333
2.171E-4,0.6333
2.171E-4,0.6333
2.172E-4,0.6333
2.174E-4,0.6333
2.177E-4,0.6335
2.18E-4,0.6336
2.18E-4,0.6786
2.18E-4,0.6786
2.18E-4,0.6786
2.18E-4,0.6786
2.181E-4,0.6786
2.181E-4,0.6786
2.182E-4,0.6786
2.184E-4,0.6786
2.187E-4,0.6786
2.19E-4,0.6786
2.19E-4,0.6786
2.19E-4,0.6786
2.191E-4,0.6786
2.191E-4,0.6786
2.191E-4,0.6786
2.192E-4,0.6787
2.194E-4,0.6787
2.197E-4,0.6788
2.2E-4,0.6789
2.2E-4,0.7133
2.2E-4,0.7133
2.2E-4,0.7133
2.201E-4,0.7133
2.201E-4,0.7133
2.201E-4,0.7133
2.202E-4,0.7133
2.205E-4,0.7133
2.207E-4,0.7133
2.21E-4,0.7133
2.21E-4,0.7133
2.21E-4,0.7133
2.211E-4,0.7133
2.211E-4,0.7133
2.211E-4,0.7133
2.212E-4,0.7133
2.214E-4,0.7134
2.217E-4,0.7134
2.22E-4,0.7135
2.22E-4,0.7367
2.22E-4,0.7367
2.221E-4,0.7367
2.221E-4,0.7367
2.221E-4,0.7367
2.222E-4,0.7367
2.223E-4,0.7367
2.227E-4,0.7367
2.23E-4,0.7367
2.23E-4,0.7367
2.23E-4,0.7367
2.231E-4,0.7367
2.231E-4,0.7367
2.232E-4,0.7367
2.233E-4,0.7367
2.236E-4,0.7368
2.24E-4,0.7368
2.24E-4,0.7485
2.24E-4,0.7485
2.241E-4,0.7485
2.241E-4,0.7485
2.241E-4,0.7485
2.242E-4,0.7485
2.244E-4,0.7485
2.247E-4,0.7485
2.25E-4,0.7485
2.25E-4,0.7485
2.25E-4,0.7485
2.251E-4,0.7485
2.251E-4,0.7485
2.252E-4,0.7485
2.255E-4,0.7485
2.257E-4,0.7485
2.260E-4,0.7485
2.260E-4,0.7485
2.260E-4,0.7485
2.261E-4,0.7485
2.262E-4,0.7485
2.263E-4,0.7485
2.266E-4,0.7485
2.27E-4,0.7485
2.27E-4,0.7485
2.27E-4,0.7485
2.271E-4,0.7485
2.271E-4,0.7485
2.272E-4,0.7485
2.273E-4,0.7485
2.277E-4,0.7485
2.280E-4,0.7484
2.280E-4,0.7367
2.280E-4,0.7367
2.281E-4,0.7367
2.281E-4,0.7367
2.281E-4,0.7367
2.282E-4,0.7367
2.284E-4,0.7367
2.287E-4,0.7367
2.29E-4,0.7367
2.29E-4,0.7367
2.29E-4,0.7367
2.291E-4,0.7367
2.291E-4,0.7367
2.292E-4,0.7367
2.293E-4,0.7367
2.295E-4,0.7366
2.298E-4,0.7366
2.300E-4,0.7366
2.300E-4,0.7133
2.300E-4,0.7133
2.301E-4,0.7133
2.301E-4,0.7133
2.301E-4,0.7133
2.302E-4,0.7133
2.303E-4,0.7133
2.307E-4,0.7133
2.31E-4,0.7133
2.31E-4,0.7133
2.31E-4,0.7133
2.311E-4,0.7133
2.311E-4,0.7133
2.311E-4,0.7133
2.312E-4,0.7133
2.314E-4,0.7132
2.317E-4,0.7131
2.32E-4,0.7130
2.32E-4,0.6786
2.32E-4,0.6786
2.32E-4,0.6786
2.321E-4,0.6786
2.321E-4,0.6786
2.321E-4,0.6786
2.322E-4,0.6786
2.325E-4,0.6786
2.327E-4,0.6786
2.33E-4,0.6786
2.33E-4,0.6786
2.33E-4,0.6786
2.331E-4,0.6786
2.331E-4,0.6786
2.331E-4,0.6786
2.332E-4,0.6786
2.334E-4,0.6785
2.337E-4,0.6784
2.34E-4,0.6783
2.34E-4,0.6332
2.34E-4,0.6332
2.34E-4,0.6332
2.34E-4,0.6332
2.341E-4,0.6332
2.341E-4,0.6332
2.342E-4,0.6332
2.344E-4,0.6332
2.347E-4,0.6332
2.35E-4,0.6332
2.35E-4,0.6332
2.35E-4,0.6332
2.351E-4,0.6332
2.351E-4,0.6332
2.351E-4,0.6332
2.352E-4,0.6332
2.353E-4,0.6332
2.356E-4,0.6331
2.36E-4,0.6328
2.36E-4,0.5779
2.36E-4,0.5779
2.36E-4,0.5779
2.36E-4,0.5779
2.361E-4,0.5779
2.361E-4,0.5779
2.362E-4,0.5779
2.364E-4,0.5779
2.367E-4,0.5779
2.37E-4,0.5779
2.37E-4,0.5779
2.37E-4,0.5779
2.37E-4,0.5779
2.371E-4,0.5779
2.371E-4,0.5779
2.372E-4,0.5778
2.373E-4,0.5778
2.375E-4,0.5777
2.378E-4,0.5776
2.38E-4,0.5774
2.38E-4,0.5134
2.38E-4,0.5134
2.38E-4,0.5134
2.38E-4,0.5134
2.38E-4,0.5134
2.38E-4,0.5134
2.38E-4,0.5134
2.38E-4,0.5134
2.38E-4,0.5134
2.381E-4,0.5134
2.381E-4,0.5134
2.381E-4,0.5134
2.382E-4,0.5134
2.384E-4,0.5134
2.387E-4,0.5134
2.39E-4,0.5134
2.39E-4,0.5134
2.39E-4,0.5134
2.39E-4,0.5134
2.391E-4,0.5134
2.391E-4,0.5134
2.391E-4,0.5134
2.393E-4,0.5133
2.395E-4,0.5132
2.397E-4,0.5131
2.4E-4,0.5129
2.4E-4,0.4408
2.4E-4,0.4408
2.4E-4,0.4408
2.4E-4,0.4408
2.401E-4,0.4408
2.401E-4,0.4408
2.402E-4,0.4408
2.403E-4,0.4408
2.406E-4,0.4408
2.41E-4,0.4408
2.41E-4,0.4408
2.41E-4,0.4408
2.41E-4,0.4408
2.411E-4,0.4408
2.411E-4,0.4408
2.411E-4,0.4408
2.412E-4,0.4407
2.415E-4,0.4406
2.417E-4,0.4405
2.42E-4,0.4403
2.42E-4,0.3613
2.42E-4,0.3613
2.42E-4,0.3613
2.42E-4,0.3613
2.421E-4,0.3613
2.421E-4,0.3613
2.422E-4,0.3613
2.423E-4,0.3613
2.426E-4,0.3613
2.43E-4,0.3613
2.43E-4,0.3613
2.43E-4,0.3613
2.43E-4,0.3613
2.431E-4,0.3613
2.431E-4,0.3613
2.431E-4,0.3613
2.432E-4,0.3612
2.434E-4,0.3611
2.437E-4,0.3609
2.44E-4,0.3607
2.44E-4,0.2761
2.44E-4,0.2761
2.44E-4,0.2761
2.44E-4,0.2761
2.44E-4,0.2761
2.44E-4,0.2761
2.44E-4,0.2761
2.44E-4,0.2761
2.44E-4,0.2761
2.44E-4,0.2761
2.44E-4,0.2761
2.44E-4,0.2761
2.441E-4,0.2761
2.441E-4,0.2761
2.442E-4,0.2761
2.443E-4,0.2761
2.446E-4,0.2761
2.45E-4,0.2761
2.45E-4,0.2761
2.45E-4,0.2761
2.45E-4,0.2761
2.451E-4,0.2761
2.451E-4,0.2761
2.451E-4,0.2760
2.452E-4,0.2760
2.454E-4,0.2759
2.457E-4,0.2757
2.46E-4,0.2754
2.46E-4,0.1865
2.46E-4,0.1865
2.46E-4,0.1865
2.46E-4,0.1865
2.461E-4,0.1865
2.461E-4,0.1865
2.462E-4,0.1865
2.463E-4,0.1865
2.466E-4,0.1865
2.47E-4,0.1865
2.47E-4,0.1865
2.47E-4,0.1865
2.47E-4,0.1865
2.471E-4,0.1865
2.471E-4,0.1865
2.471E-4,0.1865
2.472E-4,0.1864
2.474E-4,0.1863
2.477E-4,0.1861
2.48E-4,0.1858
2.48E-4,0.09401
2.48E-4,0.09401
2.48E-4,0.09401
2.48E-4,0.09401
2.481E-4,0.09401
2.481E-4,0.09401
2.482E-4,0.09401
2.483E-4,0.09401
2.486E-4,0.09401
2.49E-4,0.09401
2.49E-4,0.09400
2.49E-4,0.09400
2.49E-4,0.09399
2.491E-4,0.09399
2.491E-4,0.09397
2.491E-4,0.09395
2.492E-4,0.09390
2.494E-4,0.09378
2.497E-4,0.09356
2.5E-4,0.09331
2.5E-4,8.813E-6
2.5E-4,8.812E-6
2.5E-4,8.812E-6
2.5E-4,8.812E-6
2.501E-4,8.812E-6
2.501E-4,8.812E-6
2.502E-4,8.812E-6
2.503E-4,8.812E-6
2.506E-4,8.812E-6
2.510E-4,8.811E-6
2.510E-4,4.055E-6
2.510E-4,-1.029E-6
2.510E-4,-5.904E-6
2.510E-4,-7.607E-6
2.510E-4,-9.215E-6
2.511E-4,-1.083E-5
2.511E-4,-1.203E-5
2.511E-4,-1.341E-5
2.511E-4,-1.477E-5
2.511E-4,-1.749E-5
2.511E-4,-2.298E-5
2.511E-4,-3.412E-5
2.511E-4,-5.707E-5
2.512E-4,-1.056E-4
2.514E-4,-2.133E-4
2.518E-4,-4.709E-4
2.52E-4,-6.891E-4
2.52E-4,-0.09400
2.52E-4,-0.09400
2.52E-4,-0.09400
2.52E-4,-0.09400
2.521E-4,-0.09400
2.521E-4,-0.09400
2.522E-4,-0.09400
2.523E-4,-0.09400
2.526E-4,-0.09400
2.530E-4,-0.09400
2.530E-4,-0.09400
2.530E-4,-0.09400
2.530E-4,-0.09401
2.531E-4,-0.09402
2.531E-4,-0.09403
2.531E-4,-0.09405
2.532E-4,-0.09411
2.534E-4,-0.09422
2.537E-4,-0.09444
2.54E-4,-0.09468
2.54E-4,-0.1865
2.54E-4,-0.1865
2.54E-4,-0.1865
2.54E-4,-0.1865
2.541E-4,-0.1865
2.541E-4,-0.1865
2.542E-4,-0.1865
2.543E-4,-0.1865
2.546E-4,-0.1865
2.550E-4,-0.1865
2.550E-4,-0.1865
2.550E-4,-0.1865
2.550E-4,-0.1865
2.551E-4,-0.1865
2.551E-4,-0.1865
2.551E-4,-0.1866
2.552E-4,-0.1866
2.554E-4,-0.1867
2.557E-4,-0.1869
2.56E-4,-0.1872
2.56E-4,-0.2761
2.56E-4,-0.2761
2.56E-4,-0.2761
2.56E-4,-0.2761
2.561E-4,-0.2761
2.561E-4,-0.2761
2.562E-4,-0.2761
2.563E-4,-0.2761
2.566E-4,-0.2761
2.57E-4,-0.2761
2.57E-4,-0.2761
2.57E-4,-0.2761
2.57E-4,-0.2761
2.571E-4,-0.2761
2.571E-4,-0.2761
2.571E-4,-0.2761
2.572E-4,-0.2762
2.574E-4,-0.2763
2.577E-4,-0.2765
2.58E-4,-0.2767
2.58E-4,-0.3613
2.58E-4,-0.3613
2.58E-4,-0.3613
2.58E-4,-0.3613
2.58E-4,-0.3613
2.58E-4,-0.3613
2.58E-4,-0.3613
2.58E-4,-0.3613
2.58E-4,-0.3613
2.58E-4,-0.3613
2.58E-4,-0.3613
2.58E-4,-0.3613
2.581E-4,-0.3613
2.581E-4,-0.3613
2.582E-4,-0.3613
2.583E-4,-0.3613
2.586E-4,-0.3613
2.59E-4,-0.3613
2.59E-4,-0.3613
2.59E-4,-0.3613
2.59E-4,-0.3613
2.591E-4,-0.3613
2.591E-4,-0.3613
2.591E-4,-0.3614
2.592E-4,-0.3614
2.594E-4,-0.3615
2.597E-4,-0.3617
2.6E-4,-0.3619
2.6E-4,-0.4408
2.6E-4,-0.4408
2.6E-4,-0.4408
2.6E-4,-0.4408
2.601E-4,-0.4408
2.601E-4,-0.4408
2.602E-4,-0.4408
2.603E-4,-0.4408
2.606E-4,-0.4408
2.61E-4,-0.4408
2.61E-4,-0.4408
2.61E-4,-0.4408
2.61E-4,-0.4408
2.611E-4,-0.4409
2.611E-4,-0.4409
2.611E-4,-0.4409
2.613E-4,-0.4409
2.615E-4,-0.4410
2.617E-4,-0.4412
2.62E-4,-0.4414
2.62E-4,-0.5134
2.62E-4,-0.5134
2.62E-4,-0.5134
2.62E-4,-0.5134
2.621E-4,-0.5134
2.621E-4,-0.5134
2.622E-4,-0.5134
2.623E-4,-0.5134
2.626E-4,-0.5134
2.63E-4,-0.5134
2.63E-4,-0.5134
2.63E-4,-0.5134
2.63E-4,-0.5134
2.631E-4,-0.5134
2.631E-4,-0.5134
2.631E-4,-0.5135
2.633E-4,-0.5135
2.635E-4,-0.5136
2.637E-4,-0.5137
2.64E-4,-0.5139
2.64E-4,-0.5779
2.64E-4,-0.5779
2.64E-4,-0.5779
2.64E-4,-0.5779
2.64E-4,-0.5779
2.64E-4,-0.5779
2.64E-4,-0.5779
2.64E-4,-0.5779
2.64E-4,-0.5779
2.641E-4,-0.5779
2.641E-4,-0.5779
2.641E-4,-0.5779
2.642E-4,-0.5779
2.644E-4,-0.5779
2.647E-4,-0.5779
2.65E-4,-0.5779
2.65E-4,-0.5779
2.65E-4,-0.5779
2.65E-4,-0.5779
2.651E-4,-0.5779
2.651E-4,-0.5779
2.652E-4,-0.5779
2.653E-4,-0.5780
2.655E-4,-0.5781
2.66E-4,-0.5783
2.66E-4,-0.6332
2.66E-4,-0.6332
2.66E-4,-0.6332
2.66E-4,-0.6332
2.661E-4,-0.6332
2.661E-4,-0.6332
2.662E-4,-0.6332
2.664E-4,-0.6332
2.667E-4,-0.6332
2.67E-4,-0.6332
2.67E-4,-0.6332
2.67E-4,-0.6333
2.671E-4,-0.6333
2.671E-4,-0.6333
2.671E-4,-0.6333
2.672E-4,-0.6333
2.674E-4,-0.6333
2.677E-4,-0.6335
2.68E-4,-0.6336
2.68E-4,-0.6786
2.68E-4,-0.6786
2.68E-4,-0.6786
2.68E-4,-0.6786
2.681E-4,-0.6786
2.681E-4,-0.6786
2.682E-4,-0.6786
2.684E-4,-0.6786
2.687E-4,-0.6786
2.69E-4,-0.6786
2.69E-4,-0.6786
2.69E-4,-0.6786
2.691E-4,-0.6786
2.691E-4,-0.6786
2.691E-4,-0.6786
2.692E-4,-0.6787
2.694E-4,-0.6787
2.697E-4,-0.6788
2.7E-4,-0.6789
2.7E-4,-0.7133
2.7E-4,-0.7133
2.7E-4,-0.7133
2.701E-4,-0.7133
2.701E-4,-0.7133
2.701E-4,-0.7133
2.702E-4,-0.7133
2.705E-4,-0.7133
2.707E-4,-0.7133
2.71E-4,-0.7133
2.71E-4,-0.7133
2.71E-4,-0.7133
2.711E-4,-0.7133
2.711E-4,-0.7133
2.711E-4,-0.7133
2.712E-4,-0.7133
2.714E-4,-0.7134
2.717E-4,-0.7134
2.72E-4,-0.7135
2.72E-4,-0.7367
2.72E-4,-0.7367
2.721E-4,-0.7367
2.721E-4,-0.7367
2.721E-4,-0.7367
2.722E-4,-0.7367
2.723E-4,-0.7367
2.727E-4,-0.7367
2.73E-4,-0.7367
2.73E-4,-0.7367
2.73E-4,-0.7367
2.731E-4,-0.7367
2.731E-4,-0.7367
2.732E-4,-0.7367
2.733E-4,-0.7367
2.736E-4,-0.7368
2.74E-4,-0.7368
2.74E-4,-0.7485
2.74E-4,-0.7485
2.741E-4,-0.7485
2.741E-4,-0.7485
2.741E-4,-0.7485
2.742E-4,-0.7485
2.744E-4,-0.7485
2.747E-4,-0.7485
2.75E-4,-0.7485
2.75E-4,-0.7485
2.75E-4,-0.7485
2.751E-4,-0.7485
2.751E-4,-0.7485
2.752E-4,-0.7485
2.755E-4,-0.7485
2.757E-4,-0.7485
2.760E-4,-0.7485
2.760E-4,-0.7485
2.760E-4,-0.7485
2.761E-4,-0.7485
2.762E-4,-0.7485
2.763E-4,-0.7485
2.766E-4,-0.7485
2.77E-4,-0.7485
2.77E-4,-0.7485
2.77E-4,-0.7485
2.771E-4,-0.7485
2.771E-4,-0.7485
2.772E-4,-0.7485
2.773E-4,-0.7485
2.777E-4,-0.7485
2.780E-4,-0.7484
2.780E-4,-0.7367
2.780E-4,-0.7367
2.781E-4,-0.7367
2.781E-4,-0.7367
2.781E-4,-0.7367
2.782E-4,-0.7367
2.784E-4,-0.7367
2.787E-4,-0.7367
2.79E-4,-0.7367
2.79E-4,-0.7367
2.79E-4,-0.7367
2.791E-4,-0.7367
2.791E-4,-0.7367
2.792E-4,-0.7367
2.793E-4,-0.7367
2.795E-4,-0.7366
2.798E-4,-0.7366
2.800E-4,-0.7366
2.800E-4,-0.7133
2.800E-4,-0.7133
2.801E-4,-0.7133
2.801E-4,-0.7133
2.801E-4,-0.7133
2.802E-4,-0.7133
2.803E-4,-0.7133
2.807E-4,-0.7133
2.81E-4,-0.7133
2.81E-4,-0.7133
2.81E-4,-0.7133
2.811E-4,-0.7133
2.811E-4,-0.7133
2.811E-4,-0.7133
2.812E-4,-0.7133
2.814E-4,-0.7132
2.817E-4,-0.7131
2.82E-4,-0.7130
2.82E-4,-0.6786
2.82E-4,-0.6786
2.82E-4,-0.6786
2.821E-4,-0.6786
2.821E-4,-0.6786
2.821E-4,-0.6786
2.822E-4,-0.6786
2.825E-4,-0.6786
2.827E-4,-0.6786
2.83E-4,-0.6786
2.83E-4,-0.6786
2.83E-4,-0.6786
2.831E-4,-0.6786
2.831E-4,-0.6786
2.831E-4,-0.6786
2.832E-4,-0.6786
2.834E-4,-0.6785
2.837E-4,-0.6784
2.84E-4,-0.6783
2.84E-4,-0.6332
2.84E-4,-0.6332
2.84E-4,-0.6332
2.84E-4,-0.6332
2.841E-4,-0.6332
2.841E-4,-0.6332
2.842E-4,-0.6332
2.844E-4,-0.6332
2.847E-4,-0.6332
2.85E-4,-0.6332
2.85E-4,-0.6332
2.85E-4,-0.6332
2.851E-4,-0.6332
2.851E-4,-0.6332
2.851E-4,-0.6332
2.852E-4,-0.6332
2.853E-4,-0.6332
2.856E-4,-0.6331
2.86E-4,-0.6328
2.86E-4,-0.5779
2.86E-4,-0.5779
2.86E-4,-0.5779
2.86E-4,-0.5779
2.861E-4,-0.5779
2.861E-4,-0.5779
2.862E-4,-0.5779
2.864E-4,-0.5779
2.867E-4,-0.5779
2.87E-4,-0.5779
2.87E-4,-0.5779
2.87E-4,-0.5779
2.87E-4,-0.5779
2.871E-4,-0.5779
2.871E-4,-0.5779
2.872E-4,-0.5778
2.873E-4,-0.5778
2.875E-4,-0.5777
2.878E-4,-0.5776
2.88E-4,-0.5774
2.88E-4,-0.5134
2.88E-4,-0.5134
2.88E-4,-0.5134
2.88E-4,-0.5134
2.88E-4,-0.5134
2.88E-4,-0.5134
2.88E-4,-0.5134
2.88E-4,-0.5134
2.88E-4,-0.5134
2.881E-4,-0.5134
2.881E-4,-0.5134
2.881E-4,-0.5134
2.882E-4,-0.5134
2.884E-4,-0.5134
2.887E-4,-0.5134
2.89E-4,-0.5134
2.89E-4,-0.5134
2.89E-4,-0.5134
2.89E-4,-0.5134
2.891E-4,-0.5134
2.891E-4,-0.5134
2.891E-4,-0.5134
2.893E-4,-0.5133
2.895E-4,-0.5132
2.897E-4,-0.5131
2.9E-4,-0.5129
2.9E-4,-0.4408
2.9E-4,-0.4408
2.9E-4,-0.4408
2.9E-4,-0.4408
2.901E-4,-0.4408
2.901E-4,-0.4408
2.902E-4,-0.4408
2.903E-4,-0.4408
2.906E-4,-0.4408
2.91E-4,-0.4408
2.91E-4,-0.4408
2.91E-4,-0.4408
2.91E-4,-0.4408
2.911E-4,-0.4408
2.911E-4,-0.4408
2.911E-4,-0.4408
2.912E-4,-0.4407
2.915E-4,-0.4406
2.917E-4,-0.4405
2.92E-4,-0.4403
2.92E-4,-0.3613
2.92E-4,-0.3613
2.92E-4,-0.3613
2.92E-4,-0.3613
2.921E-4,-0.3613
2.921E-4,-0.3613
2.922E-4,-0.3613
2.923E-4,-0.3613
2.926E-4,-0.3613
2.93E-4,-0.3613
2.93E-4,-0.3613
2.93E-4,-0.3613
2.93E-4,-0.3613
2.931E-4,-0.3613
2.931E-4,-0.3613
2.931E-4,-0.3613
2.932E-4,-0.3612
2.934E-4,-0.3611
2.937E-4,-0.3609
2.94E-4,-0.3607
2.94E-4,-0.2761
2.94E-4,-0.2761
2.94E-4,-0.2761
2.94E-4,-0.2761
2.94E-4,-0.2761
2.94E-4,-0.2761
2.94E-4,-0.2761
2.94E-4,-0.2761
2.94E-4,-0.2761
2.94E-4,-0.2761
2.94E-4,-0.2761
2.94E-4,-0.2761
2.941E-4,-0.2761
2.941E-4,-0.2761
2.942E-4,-0.2761
2.943E-4,-0.2761
2.946E-4,-0.2761
2.95E-4,-0.2761
2.95E-4,-0.2761
2.95E-4,-0.2761
2.95E-4,-0.2761
2.951E-4,-0.2761
2.951E-4,-0.2761
2.951E-4,-0.2760
2.952E-4,-0.2760
2.954E-4,-0.2759
2.957E-4,-0.2757
2.96E-4,-0.2754
2.96E-4,-0.1865
2.96E-4,-0.1865
2.96E-4,-0.1865
2.96E-4,-0.1865
2.961E-4,-0.1865
2.961E-4,-0.1865
2.962E-4,-0.1865
2.963E-4,-0.1865
2.966E-4,-0.1865
2.97E-4,-0.1865
2.97E-4,-0.1865
2.97E-4,-0.1865
2.97E-4,-0.1865
2.971E-4,-0.1865
2.971E-4,-0.1865
2.971E-4,-0.1865
2.972E-4,-0.1864
2.974E-4,-0.1863
2.977E-4,-0.1861
2.98E-4,-0.1858
2.98E-4,-0.09401
2.98E-4,-0.09401
2.98E-4,-0.09401
2.98E-4,-0.09401
2.981E-4,-0.09401
2.981E-4,-0.09401
2.982E-4,-0.09401
2.983E-4,-0.09401
2.986E-4,-0.09401
2.99E-4,-0.09401
2.99E-4,-0.09400
2.99E-4,-0.09400
2.99E-4,-0.09399
2.991E-4,-0.09399
2.991E-4,-0.09397
2.991E-4,-0.09395
2.992E-4,-0.09390
2.994E-4,-0.09378
2.997E-4,-0.09356
3.0E-4,-0.09331
3.0E-4,-8.813E-6
3.0E-4,-8.812E-6
3.0E-4,-8.812E-6
3.0E-4,-8.812E-6
3.001E-4,-8.812E-6
3.001E-4,-8.812E-6
3.002E-4,-8.812E-6
3.003E-4,-8.812E-6
3.006E-4,-8.812E-6
3.010E-4,-8.811E-6
3.010E-4,-4.055E-6
3.010E-4,1.029E-6
3.010E-4,5.904E-6
3.010E-4,7.607E-6
3.010E-4,9.215E-6
3.011E-4,1.083E-5
3.011E-4,1.203E-5
3.011E-4,1.341E-5
3.011E-4,1.477E-5
3.011E-4,1.749E-5
3.011E-4,2.298E-5
3.011E-4,3.412E-5
3.011E-4,5.707E-5
3.012E-4,1.056E-4
3.014E-4,2.133E-4
3.018E-4,4.709E-4
3.02E-4,6.891E-4
3.02E-4,0.09400
3.02E-4,0.09400
3.02E-4,0.09400
3.02E-4,0.09400
3.021E-4,0.09400
3.021E-4,0.09400
3.022E-4,0.09400
3.023E-4,0.09400
3.026E-4,0.09400
3.030E-4,0.09400
3.030E-4,0.09400
3.030E-4,0.09400
3.030E-4,0.09401
3.031E-4,0.09402
3.031E-4,0.09403
3.031E-4,0.09405
3.032E-4,0.09411
3.034E-4,0.09422
3.037E-4,0.09444
3.04E-4,0.09468
3.04E-4,0.1865
3.04E-4,0.1865
3.04E-4,0.1865
3.04E-4,0.1865
3.041E-4,0.1865
3.041E-4,0.1865
3.042E-4,0.1865
3.043E-4,0.1865
3.046E-4,0.1865
3.050E-4,0.1865
3.050E-4,0.1865
3.050E-4,0.1865
3.050E-4,0.1865
3.051E-4,0.1865
3.051E-4,0.1865
3.051E-4,0.1866
3.052E-4,0.1866
3.054E-4,0.1867
3.057E-4,0.1869
3.06E-4,0.1872
3.06E-4,0.2761
3.06E-4,0.2761
3.06E-4,0.2761
3.06E-4,0.2761
3.061E-4,0.2761
3.061E-4,0.2761
3.062E-4,0.2761
3.063E-4,0.2761
3.066E-4,0.2761
3.070E-4,0.2761
3.070E-4,0.2761
3.070E-4,0.2761
3.070E-4,0.2761
3.071E-4,0.2761
3.071E-4,0.2761
3.071E-4,0.2761
3.072E-4,0.2762
3.074E-4,0.2763
3.077E-4,0.2765
3.08E-4,0.2767
3.08E-4,0.3613
3.08E-4,0.3613
3.08E-4,0.3613
3.08E-4,0.3613
3.08E-4,0.3613
3.08E-4,0.3613
3.08E-4,0.3613
3.08E-4,0.3613
3.08E-4,0.3613
3.08E-4,0.3613
3.08E-4,0.3613
3.08E-4,0.3613
3.081E-4,0.3613
3.081E-4,0.3613
3.082E-4,0.3613
3.083E-4,0.3613
3.086E-4,0.3613
3.09E-4,0.3613
3.09E-4,0.3613
3.09E-4,0.3613
3.09E-4,0.3613
3.091E-4,0.3613
3.091E-4,0.3613
3.091E-4,0.3614
3.092E-4,0.3614
3.094E-4,0.3615
3.097E-4,0.3617
3.1E-4,0.3619
3.1E-4,0.4408
3.1E-4,0.4408
3.1E-4,0.4408
3.1E-4,0.4408
3.101E-4,0.4408
3.101E-4,0.4408
3.102E-4,0.4408
3.103E-4,0.4408
3.106E-4,0.4408
3.11E-4,0.4408
3.11E-4,0.4408
3.11E-4,0.4408
3.11E-4,0.4408
3.111E-4,0.4409
3.111E-4,0.4409
3.111E-4,0.4409
3.113E-4,0.4409
3.115E-4,0.4410
3.117E-4,0.4412
3.12E-4,0.4414
3.12E-4,0.5134
3.12E-4,0.5134
3.12E-4,0.5134
3.12E-4,0.5134
3.121E-4,0.5134
3.121E-4,0.5134
3.122E-4,0.5134
3.123E-4,0.5134
3.126E-4,0.5134
3.13E-4,0.5134
3.13E-4,0.5134
3.13E-4,0.5134
3.13E-4,0.5134
3.131E-4,0.5134
3.131E-4,0.5134
3.131E-4,0.5135
3.133E-4,0.5135
3.135E-4,0.5136
3.137E-4,0.5137
3.14E-4,0.5139
3.14E-4,0.5779
3.14E-4,0.5779
3.14E-4,0.5779
3.14E-4,0.5779
3.14E-4,0.5779
3.14E-4,0.5779
3.14E-4,0.5779
3.14E-4,0.5779
3.14E-4,0.5779
3.141E-4,0.5779
3.141E-4,0.5779
3.141E-4,0.5779
3.142E-4,0.5779
3.144E-4,0.5779
3.147E-4,0.5779
3.15E-4,0.5779
3.15E-4,0.5779
3.15E-4,0.5779
3.15E-4,0.5779
3.151E-4,0.5779
3.151E-4,0.5779
3.152E-4,0.5779
3.153E-4,0.5780
3.155E-4,0.5781
3.16E-4,0.5783
3.16E-4,0.6332
3.16E-4,0.6332
3.16E-4,0.6332
3.16E-4,0.6332
3.161E-4,0.6332
3.161E-4,0.6332
3.162E-4,0.6332
3.164E-4,0.6332
3.167E-4,0.6332
3.17E-4,0.6332
3.17E-4,0.6332
3.17E-4,0.6333
3.171E-4,0.6333
3.171E-4,0.6333
3.171E-4,0.6333
3.172E-4,0.6333
3.174E-4,0.6333
3.177E-4,0.6335
3.18E-4,0.6336
3.18E-4,0.6786
3.18E-4,0.6786
3.18E-4,0.6786
3.18E-4,0.6786
3.181E-4,0.6786
3.181E-4,0.6786
3.182E-4,0.6786
3.184E-4,0.6786
3.187E-4,0.6786
3.19E-4,0.6786
3.19E-4,0.6786
3.19E-4,0.6786
3.191E-4,0.6786
3.191E-4,0.6786
3.191E-4,0.6786
3.192E-4,0.6787
3.194E-4,0.6787
3.197E-4,0.6788
3.2E-4,0.6789
3.2E-4,0.7133
3.2E-4,0.7133
3.2E-4,0.7133
3.201E-4,0.7133
3.201E-4,0.7133
3.201E-4,0.7133
3.202E-4,0.7133
3.205E-4,0.7133
3.207E-4,0.7133
3.21E-4,0.7133
3.21E-4,0.7133
3.21E-4,0.7133
3.211E-4,0.7133
3.211E-4,0.7133
3.211E-4,0.7133
3.212E-4,0.7133
3.214E-4,0.7134
3.217E-4,0.7134
3.22E-4,0.7135
3.22E-4,0.7367
3.22E-4,0.7367
3.221E-4,0.7367
3.221E-4,0.7367
3.221E-4,0.7367
3.222E-4,0.7367
3.223E-4,0.7367
3.227E-4,0.7367
3.23E-4,0.7367
3.23E-4,0.7367
3.23E-4,0.7367
3.231E-4,0.7367
3.231E-4,0.7367
3.232E-4,0.7367
3.233E-4,0.7367
3.236E-4,0.7368
3.24E-4,0.7368
3.24E-4,0.7485
3.24E-4,0.7485
3.241E-4,0.7485
3.241E-4,0.7485
3.241E-4,0.7485
3.242E-4,0.7485
3.244E-4,0.7485
3.247E-4,0.7485
3.25E-4,0.7485
3.25E-4,0.7485
3.25E-4,0.7485
3.251E-4,0.7485
3.251E-4,0.7485
3.252E-4,0.7485
3.255E-4,0.7485
3.257E-4,0.7485
3.260E-4,0.7485
3.260E-4,0.7485
3.260E-4,0.7485
3.261E-4,0.7485
3.262E-4,0.7485
3.263E-4,0.7485
3.266E-4,0.7485
3.27E-4,0.7485
3.27E-4,0.7485
3.27E-4,0.7485
3.271E-4,0.7485
3.271E-4,0.7485
3.272E-4,0.7485
3.273E-4,0.7485
3.277E-4,0.7485
3.280E-4,0.7484
3.280E-4,0.7367
3.280E-4,0.7367
3.281E-4,0.7367
3.281E-4,0.7367
3.281E-4,0.7367
3.282E-4,0.7367
3.284E-4,0.7367
3.287E-4,0.7367
3.29E-4,0.7367
3.29E-4,0.7367
3.29E-4,0.7367
3.291E-4,0.7367
3.291E-4,0.7367
3.292E-4,0.7367
3.293E-4,0.7367
3.295E-4,0.7366
3.298E-4,0.7366
3.300E-4,0.7366
3.300E-4,0.7133
3.300E-4,0.7133
3.301E-4,0.7133
3.301E-4,0.7133
3.301E-4,0.7133
3.302E-4,0.7133
3.303E-4,0.7133
3.307E-4,0.7133
3.31E-4,0.7133
3.31E-4,0.7133
3.31E-4,0.7133
3.311E-4,0.7133
3.311E-4,0.7133
3.311E-4,0.7133
3.312E-4,0.7133
3.314E-4,0.7132
3.317E-4,0.7131
3.320E-4,0.7130
3.320E-4,0.6786
3.320E-4,0.6786
3.320E-4,0.6786
3.321E-4,0.6786
3.321E-4,0.6786
3.321E-4,0.6786
3.322E-4,0.6786
3.325E-4,0.6786
3.327E-4,0.6786
3.33E-4,0.6786
3.33E-4,0.6786
3.33E-4,0.6786
3.331E-4,0.6786
3.331E-4,0.6786
3.331E-4,0.6786
3.332E-4,0.6786
3.334E-4,0.6785
3.337E-4,0.6784
3.34E-4,0.6783
3.34E-4,0.6332
3.34E-4,0.6332
3.34E-4,0.6332
3.34E-4,0.6332
3.341E-4,0.6332
3.341E-4,0.6332
3.342E-4,0.6332
3.344E-4,0.6332
3.347E-4,0.6332
3.35E-4,0.6332
3.35E-4,0.6332
3.35E-4,0.6332
3.351E-4,0.6332
3.351E-4,0.6332
3.351E-4,0.6332
3.352E-4,0.6332
3.353E-4,0.6332
3.356E-4,0.6331
3.36E-4,0.6328
3.36E-4,0.5779
3.36E-4,0.5779
3.36E-4,0.5779
3.36E-4,0.5779
3.361E-4,0.5779
3.361E-4,0.5779
3.362E-4,0.5779
3.364E-4,0.5779
3.367E-4,0.5779
3.37E-4,0.5779
3.37E-4,0.5779
3.37E-4,0.5779
3.37E-4,0.5779
3.371E-4,0.5779
3.371E-4,0.5779
3.372E-4,0.5778
3.373E-4,0.5778
3.375E-4,0.5777
3.378E-4,0.5776
3.38E-4,0.5774
3.38E-4,0.5134
3.38E-4,0.5134
3.38E-4,0.5134
3.38E-4,0.5134
3.38E-4,0.5134
3.38E-4,0.5134
3.38E-4,0.5134
3.38E-4,0.5134
3.38E-4,0.5134
3.381E-4,0.5134
3.381E-4,0.5134
3.381E-4,0.5134
3.382E-4,0.5134
3.384E-4,0.5134
3.387E-4,0.5134
3.39E-4,0.5134
3.39E-4,0.5134
3.39E-4,0.5134
3.39E-4,0.5134
3.391E-4,0.5134
3.391E-4,0.5134
3.391E-4,0.5134
3.393E-4,0.5133
3.395E-4,0.5132
3.397E-4,0.5131
3.4E-4,0.5129
3.4E-4,0.4408
3.4E-4,0.4408
3.4E-4,0.4408
3.4E-4,0.4408
3.401E-4,0.4408
3.401E-4,0.4408
3.402E-4,0.4408
3.403E-4,0.4408
3.406E-4,0.4408
3.41E-4,0.4408
3.41E-4,0.4408
3.41E-4,0.4408
3.41E-4,0.4408
3.411E-4,0.4408
3.411E-4,0.4408
3.411E-4,0.4408
3.412E-4,0.4407
3.415E-4,0.4406
3.417E-4,0.4405
3.42E-4,0.4403
3.42E-4,0.3613
3.42E-4,0.3613
3.42E-4,0.3613
3.42E-4,0.3613
3.421E-4,0.3613
3.421E-4,0.3613
3.422E-4,0.3613
3.423E-4,0.3613
3.426E-4,0.3613
3.43E-4,0.3613
3.43E-4,0.3613
3.43E-4,0.3613
3.43E-4,0.3613
3.431E-4,0.3613
3.431E-4,0.3613
3.431E-4,0.3613
3.432E-4,0.3612
3.434E-4,0.3611
3.437E-4,0.3609
3.44E-4,0.3607
3.44E-4,0.2761
3.44E-4,0.2761
3.44E-4,0.2761
3.44E-4,0.2761
3.44E-4,0.2761
3.44E-4,0.2761
3.44E-4,0.2761
3.44E-4,0.2761
3.44E-4,0.2761
3.44E-4,0.2761
3.44E-4,0.2761
3.44E-4,0.2761
3.441E-4,0.2761
3.441E-4,0.2761
3.442E-4,0.2761
3.443E-4,0.2761
3.446E-4,0.2761
3.45E-4,0.2761
3.45E-4,0.2761
3.45E-4,0.2761
3.45E-4,0.2761
3.451E-4,0.2761
3.451E-4,0.2761
3.451E-4,0.2760
3.452E-4,0.2760
3.454E-4,0.2759
3.457E-4,0.2757
3.46E-4,0.2754
3.46E-4,0.1865
3.46E-4,0.1865
3.46E-4,0.1865
3.46E-4,0.1865
3.461E-4,0.1865
3.461E-4,0.1865
3.462E-4,0.1865
3.463E-4,0.1865
3.466E-4,0.1865
3.47E-4,0.1865
3.47E-4,0.1865
3.47E-4,0.1865
3.47E-4,0.1865
3.471E-4,0.1865
3.471E-4,0.1865
3.471E-4,0.1865
3.472E-4,0.1864
3.474E-4,0.1863
3.477E-4,0.1861
3.48E-4,0.1858
3.48E-4,0.09401
3.48E-4,0.09401
3.48E-4,0.09401
3.48E-4,0.09401
3.481E-4,0.09401
3.481E-4,0.09401
3.482E-4,0.09401
3.483E-4,0.09401
3.486E-4,0.09401
3.49E-4,0.09401
3.49E-4,0.09400
3.49E-4,0.09400
3.49E-4,0.09399
3.491E-4,0.09399
3.491E-4,0.09397
3.491E-4,0.09395
3.492E-4,0.09390
3.494E-4,0.09378
3.497E-4,0.09356
3.5E-4,0.09331
3.5E-4,8.813E-6
3.5E-4,8.812E-6
3.5E-4,8.812E-6
3.5E-4,8.812E-6
3.501E-4,8.812E-6
3.501E-4,8.812E-6
3.502E-4,8.812E-6
3.503E-4,8.812E-6
3.506E-4,8.812E-6
3.510E-4,8.811E-6
3.510E-4,4.055E-6
3.510E-4,-1.029E-6
3.510E-4,-5.904E-6
3.510E-4,-7.607E-6
3.510E-4,-9.215E-6
3.511E-4,-1.083E-5
3.511E-4,-1.203E-5
3.511E-4,-1.341E-5
3.511E-4,-1.477E-5
3.511E-4,-1.749E-5
3.511E-4,-2.298E-5
3.511E-4,-3.412E-5
3.511E-4,-5.707E-5
3.512E-4,-1.056E-4
3.514E-4,-2.133E-4
3.518E-4,-4.709E-4
3.52E-4,-6.891E-4
3.52E-4,-0.09400
3.52E-4,-0.09400
3.52E-4,-0.09400
3.52E-4,-0.09400
3.521E-4,-0.09400
3.521E-4,-0.09400
3.522E-4,-0.09400
3.523E-4,-0.09400
3.526E-4,-0.09400
3.530E-4,-0.09400
3.530E-4,-0.09400
3.530E-4,-0.09400
3.530E-4,-0.09401
3.531E-4,-0.09402
3.531E-4,-0.09403
3.531E-4,-0.09405
3.532E-4,-0.09411
3.534E-4,-0.09422
3.537E-4,-0.09444
3.54E-4,-0.09468
3.54E-4,-0.1865
3.54E-4,-0.1865
3.54E-4,-0.1865
3.54E-4,-0.1865
3.541E-4,-0.1865
3.541E-4,-0.1865
3.542E-4,-0.1865
3.543E-4,-0.1865
3.546E-4,-0.1865
3.550E-4,-0.1865
3.550E-4,-0.1865
3.550E-4,-0.1865
3.550E-4,-0.1865
3.551E-4,-0.1865
3.551E-4,-0.1865
3.551E-4,-0.1866
3.552E-4,-0.1866
3.554E-4,-0.1867
3.557E-4,-0.1869
3.56E-4,-0.1872
3.56E-4,-0.2761
3.56E-4,-0.2761
3.56E-4,-0.2761
3.56E-4,-0.2761
3.561E-4,-0.2761
3.561E-4,-0.2761
3.562E-4,-0.2761
3.563E-4,-0.2761
3.566E-4,-0.2761
3.570E-4,-0.2761
3.570E-4,-0.2761
3.570E-4,-0.2761
3.570E-4,-0.2761
3.571E-4,-0.2761
3.571E-4,-0.2761
3.571E-4,-0.2761
3.572E-4,-0.2762
3.574E-4,-0.2763
3.577E-4,-0.2765
3.58E-4,-0.2767
3.58E-4,-0.3613
3.58E-4,-0.3613
3.58E-4,-0.3613
3.58E-4,-0.3613
3.58E-4,-0.3613
3.58E-4,-0.3613
3.58E-4,-0.3613
3.58E-4,-0.3613
3.58E-4,-0.3613
3.58E-4,-0.3613
3.58E-4,-0.3613
3.58E-4,-0.3613
3.581E-4,-0.3613
3.581E-4,-0.3613
3.582E-4,-0.3613
3.583E-4,-0.3613
3.586E-4,-0.3613
3.59E-4,-0.3613
3.59E-4,-0.3613
3.59E-4,-0.3613
3.59E-4,-0.3613
3.591E-4,-0.3613
3.591E-4,-0.3613
3.591E-4,-0.3614
3.592E-4,-0.3614
3.594E-4,-0.3615
3.597E-4,-0.3617
3.6E-4,-0.3619
3.6E-4,-0.4408
3.6E-4,-0.4408
3.6E-4,-0.4408
3.6E-4,-0.4408
3.601E-4,-0.4408
3.601E-4,-0.4408
3.602E-4,-0.4408
3.603E-4,-0.4408
3.606E-4,-0.4408
3.61E-4,-0.4408
3.61E-4,-0.4408
3.61E-4,-0.4408
3.61E-4,-0.4408
3.611E-4,-0.4409
3.611E-4,-0.4409
3.611E-4,-0.4409
3.613E-4,-0.4409
3.615E-4,-0.4410
3.617E-4,-0.4412
3.62E-4,-0.4414
3.62E-4,-0.5134
3.62E-4,-0.5134
3.62E-4,-0.5134
3.62E-4,-0.5134
3.621E-4,-0.5134
3.621E-4,-0.5134
3.622E-4,-0.5134
3.623E-4,-0.5134
3.626E-4,-0.5134
3.63E-4,-0.5134
3.63E-4,-0.5134
3.63E-4,-0.5134
3.63E-4,-0.5134
3.631E-4,-0.5134
3.631E-4,-0.5134
3.631E-4,-0.5135
3.633E-4,-0.5135
3.635E-4,-0.5136
3.637E-4,-0.5137
3.64E-4,-0.5139
3.64E-4,-0.5779
3.64E-4,-0.5779
3.64E-4,-0.5779
3.64E-4,-0.5779
3.64E-4,-0.5779
3.64E-4,-0.5779
3.64E-4,-0.5779
3.64E-4,-0.5779
3.64E-4,-0.5779
3.641E-4,-0.5779
3.641E-4,-0.5779
3.641E-4,-0.5779
3.642E-4,-0.5779
3.644E-4,-0.5779
3.647E-4,-0.5779
3.65E-4,-0.5779
3.65E-4,-0.5779
3.65E-4,-0.5779
3.65E-4,-0.5779
3.651E-4,-0.5779
3.651E-4,-0.5779
3.652E-4,-0.5779
3.653E-4,-0.5780
3.655E-4,-0.5781
3.66E-4,-0.5783
3.66E-4,-0.6332
3.66E-4,-0.6332
3.66E-4,-0.6332
3.66E-4,-0.6332
3.661E-4,-0.6332
3.661E-4,-0.6332
3.662E-4,-0.6332
3.664E-4,-0.6332
3.667E-4,-0.6332
3.67E-4,-0.6332
3.67E-4,-0.6332
3.67E-4,-0.6333
3.671E-4,-0.6333
3.671E-4,-0.6333
3.671E-4,-0.6333
3.672E-4,-0.6333
3.674E-4,-0.6333
3.677E-4,-0.6335
3.68E-4,-0.6336
3.68E-4,-0.6786
3.68E-4,-0.6786
3.68E-4,-0.6786
3.68E-4,-0.6786
3.681E-4,-0.6786
3.681E-4,-0.6786
3.682E-4,-0.6786
3.684E-4,-0.6786
3.687E-4,-0.6786
3.69E-4,-0.6786
3.69E-4,-0.6786
3.69E-4,-0.6786
3.691E-4,-0.6786
3.691E-4,-0.6786
3.691E-4,-0.6786
3.692E-4,-0.6787
3.694E-4,-0.6787
3.697E-4,-0.6788
3.7E-4,-0.6789
3.7E-4,-0.7133
3.7E-4,-0.7133
3.7E-4,-0.7133
3.701E-4,-0.7133
3.701E-4,-0.7133
3.701E-4,-0.7133
3.702E-4,-0.7133
3.705E-4,-0.7133
3.707E-4,-0.7133
3.71E-4,-0.7133
3.71E-4,-0.7133
3.71E-4,-0.7133
3.711E-4,-0.7133
3.711E-4,-0.7133
3.711E-4,-0.7133
3.712E-4,-0.7133
3.714E-4,-0.7134
3.717E-4,-0.7134
3.72E-4,-0.7135
3.72E-4,-0.7367
3.72E-4,-0.7367
3.721E-4,-0.7367
3.721E-4,-0.7367
3.721E-4,-0.7367
3.722E-4,-0.7367
3.723E-4,-0.7367
3.727E-4,-0.7367
3.73E-4,-0.7367
3.73E-4,-0.7367
3.73E-4,-0.7367
3.731E-4,-0.7367
3.731E-4,-0.7367
3.732E-4,-0.7367
3.733E-4,-0.7367
3.736E-4,-0.7368
3.74E-4,-0.7368
3.74E-4,-0.7485
3.74E-4,-0.7485
3.741E-4,-0.7485
3.741E-4,-0.7485
3.741E-4,-0.7485
3.742E-4,-0.7485
3.744E-4,-0.7485
3.747E-4,-0.7485
3.75E-4,-0.7485
3.75E-4,-0.7485
3.75E-4,-0.7485
3.751E-4,-0.7485
3.751E-4,-0.7485
3.752E-4,-0.7485
3.755E-4,-0.7485
3.757E-4,-0.7485
3.760E-4,-0.7485
3.760E-4,-0.7485
3.760E-4,-0.7485
3.761E-4,-0.7485
3.762E-4,-0.7485
3.763E-4,-0.7485
3.766E-4,-0.7485
3.77E-4,-0.7485
3.77E-4,-0.7485
3.77E-4,-0.7485
3.771E-4,-0.7485
3.771E-4,-0.7485
3.772E-4,-0.7485
3.773E-4,-0.7485
3.777E-4,-0.7485
3.780E-4,-0.7484
3.780E-4,-0.7367
3.780E-4,-0.7367
3.781E-4,-0.7367
3.781E-4,-0.7367
3.781E-4,-0.7367
3.782E-4,-0.7367
3.784E-4,-0.7367
3.787E-4,-0.7367
3.79E-4,-0.7367
3.79E-4,-0.7367
3.79E-4,-0.7367
3.791E-4,-0.7367
3.791E-4,-0.7367
3.792E-4,-0.7367
3.793E-4,-0.7367
3.795E-4,-0.7366
3.798E-4,-0.7366
3.800E-4,-0.7366
3.800E-4,-0.7133
3.800E-4,-0.7133
3.801E-4,-0.7133
3.801E-4,-0.7133
3.801E-4,-0.7133
3.802E-4,-0.7133
3.803E-4,-0.7133
3.807E-4,-0.7133
3.81E-4,-0.7133
3.81E-4,-0.7133
3.81E-4,-0.7133
3.811E-4,-0.7133
3.811E-4,-0.7133
3.811E-4,-0.7133
3.812E-4,-0.7133
3.814E-4,-0.7132
3.817E-4,-0.7131
3.820E-4,-0.7130
3.820E-4,-0.6786
3.820E-4,-0.6786
3.820E-4,-0.6786
3.821E-4,-0.6786
3.821E-4,-0.6786
3.821E-4,-0.6786
3.822E-4,-0.6786
3.825E-4,-0.6786
3.827E-4,-0.6786
3.83E-4,-0.6786
3.83E-4,-0.6786
3.83E-4,-0.6786
3.831E-4,-0.6786
3.831E-4,-0.6786
3.831E-4,-0.6786
3.832E-4,-0.6786
3.834E-4,-0.6785
3.837E-4,-0.6784
3.84E-4,-0.6783
3.84E-4,-0.6332
3.84E-4,-0.6332
3.84E-4,-0.6332
3.84E-4,-0.6332
3.841E-4,-0.6332
3.841E-4,-0.6332
3.842E-4,-0.6332
3.844E-4,-0.6332
3.847E-4,-0.6332
3.85E-4,-0.6332
3.85E-4,-0.6332
3.85E-4,-0.6332
3.851E-4,-0.6332
3.851E-4,-0.6332
3.851E-4,-0.6332
3.852E-4,-0.6332
3.853E-4,-0.6332
3.856E-4,-0.6331
3.86E-4,-0.6328
3.86E-4,-0.5779
3.86E-4,-0.5779
3.86E-4,-0.5779
3.86E-4,-0.5779
3.861E-4,-0.5779
3.861E-4,-0.5779
3.862E-4,-0.5779
3.864E-4,-0.5779
3.867E-4,-0.5779
3.87E-4,-0.5779
3.87E-4,-0.5779
3.87E-4,-0.5779
3.87E-4,-0.5779
3.871E-4,-0.5779
3.871E-4,-0.5779
3.872E-4,-0.5778
3.873E-4,-0.5778
3.875E-4,-0.5777
3.878E-4,-0.5776
3.88E-4,-0.5774
3.88E-4,-0.5134
3.88E-4,-0.5134
3.88E-4,-0.5134
3.88E-4,-0.5134
3.88E-4,-0.5134
3.88E-4,-0.5134
3.88E-4,-0.5134
3.88E-4,-0.5134
3.88E-4,-0.5134
3.881E-4,-0.5134
3.881E-4,-0.5134
3.881E-4,-0.5134
3.882E-4,-0.5134
3.884E-4,-0.5134
3.887E-4,-0.5134
3.89E-4,-0.5134
3.89E-4,-0.5134
3.89E-4,-0.5134
3.89E-4,-0.5134
3.891E-4,-0.5134
3.891E-4,-0.5134
3.891E-4,-0.5134
3.893E-4,-0.5133
3.895E-4,-0.5132
3.897E-4,-0.5131
3.9E-4,-0.5129
3.9E-4,-0.4408
3.9E-4,-0.4408
3.9E-4,-0.4408
3.9E-4,-0.4408
3.901E-4,-0.4408
3.901E-4,-0.4408
3.902E-4,-0.4408
3.903E-4,-0.4408
3.906E-4,-0.4408
3.91E-4,-0.4408
3.91E-4,-0.4408
3.91E-4,-0.4408
3.91E-4,-0.4408
3.911E-4,-0.4408
3.911E-4,-0.4408
3.911E-4,-0.4408
3.912E-4,-0.4407
3.915E-4,-0.4406
3.917E-4,-0.4405
3.92E-4,-0.4403
3.92E-4,-0.3613
3.92E-4,-0.3613
3.92E-4,-0.3613
3.92E-4,-0.3613
3.921E-4,-0.3613
3.921E-4,-0.3613
3.922E-4,-0.3613
3.923E-4,-0.3613
3.926E-4,-0.3613
3.93E-4,-0.3613
3.93E-4,-0.3613
3.93E-4,-0.3613
3.93E-4,-0.3613
3.931E-4,-0.3613
3.931E-4,-0.3613
3.931E-4,-0.3613
3.932E-4,-0.3612
3.934E-4,-0.3611
3.937E-4,-0.3609
3.94E-4,-0.3607
3.94E-4,-0.2761
3.94E-4,-0.2761
3.94E-4,-0.2761
3.94E-4,-0.2761
3.94E-4,-0.2761
3.94E-4,-0.2761
3.94E-4,-0.2761
3.94E-4,-0.2761
3.94E-4,-0.2761
3.94E-4,-0.2761
3.94E-4,-0.2761
3.94E-4,-0.2761
3.941E-4,-0.2761
3.941E-4,-0.2761
3.942E-4,-0.2761
3.943E-4,-0.2761
3.946E-4,-0.2761
3.95E-4,-0.2761
3.95E-4,-0.2761
3.95E-4,-0.2761
3.95E-4,-0.2761
3.951E-4,-0.2761
3.951E-4,-0.2761
3.951E-4,-0.2760
3.952E-4,-0.2760
3.954E-4,-0.2759
3.957E-4,-0.2757
3.96E-4,-0.2754
3.96E-4,-0.1865
3.96E-4,-0.1865
3.96E-4,-0.1865
3.96E-4,-0.1865
3.961E-4,-0.1865
3.961E-4,-0.1865
3.962E-4,-0.1865
3.963E-4,-0.1865
3.966E-4,-0.1865
3.97E-4,-0.1865
3.97E-4,-0.1865
3.97E-4,-0.1865
3.97E-4,-0.1865
3.971E-4,-0.1865
3.971E-4,-0.1865
3.971E-4,-0.1865
3.972E-4,-0.1864
3.974E-4,-0.1863
3.977E-4,-0.1861
3.98E-4,-0.1858
3.98E-4,-0.09401
3.98E-4,-0.09401
3.98E-4,-0.09401
3.98E-4,-0.09401
3.981E-4,-0.09401
3.981E-4,-0.09401
3.982E-4,-0.09401
3.983E-4,-0.09401
3.986E-4,-0.09401
3.99E-4,-0.09401
3.99E-4,-0.09400
3.99E-4,-0.09400
3.99E-4,-0.09399
3.991E-4,-0.09399
3.991E-4,-0.09397
3.991E-4,-0.09395
3.992E-4,-0.09390
3.994E-4,-0.09378
3.997E-4,-0.09356
4.0E-4,-0.09331
4.0E-4,-8.813E-6
4.0E-4,-8.812E-6
4.0E-4,-8.812E-6
4.0E-4,-8.812E-6
4.001E-4,-8.812E-6
4.001E-4,-8.812E-6
4.002E-4,-8.812E-6
4.003E-4,-8.812E-6
4.006E-4,-8.812E-6
4.01E-4,-8.811E-6
4.01E-4,-4.055E-6
4.01E-4,1.029E-6
4.01E-4,5.904E-6
4.01E-4,7.607E-6
4.01E-4,9.215E-6
4.011E-4,1.083E-5
4.011E-4,1.203E-5
4.011E-4,1.341E-5
4.011E-4,1.477E-5
4.011E-4,1.749E-5
4.011E-4,2.298E-5
4.011E-4,3.412E-5
4.011E-4,5.707E-5
4.012E-4,1.056E-4
4.014E-4,2.133E-4
4.018E-4,4.709E-4
4.020E-4,6.891E-4
4.020E-4,0.09400
4.020E-4,0.09400
4.020E-4,0.09400
4.020E-4,0.09400
4.021E-4,0.09400
4.021E-4,0.09400
4.022E-4,0.09400
4.023E-4,0.09400
4.026E-4,0.09400
4.03E-4,0.09400
4.03E-4,0.09400
4.03E-4,0.09400
4.03E-4,0.09401
4.031E-4,0.09402
4.031E-4,0.09403
4.031E-4,0.09405
4.032E-4,0.09411
4.034E-4,0.09422
4.037E-4,0.09444
4.04E-4,0.09468
4.04E-4,0.1865
4.04E-4,0.1865
4.04E-4,0.1865
4.04E-4,0.1865
4.041E-4,0.1865
4.041E-4,0.1865
4.042E-4,0.1865
4.043E-4,0.1865
4.046E-4,0.1865
4.05E-4,0.1865
4.05E-4,0.1865
4.05E-4,0.1865
4.05E-4,0.1865
4.051E-4,0.1865
4.051E-4,0.1865
4.051E-4,0.1866
4.052E-4,0.1866
4.054E-4,0.1867
4.057E-4,0.1869
4.060E-4,0.1872
4.060E-4,0.2761
4.060E-4,0.2761
4.060E-4,0.2761
4.060E-4,0.2761
4.061E-4,0.2761
4.061E-4,0.2761
4.062E-4,0.2761
4.063E-4,0.2761
4.066E-4,0.2761
4.07E-4,0.2761
4.07E-4,0.2761
4.07E-4,0.2761
4.07E-4,0.2761
4.071E-4,0.2761
4.071E-4,0.2761
4.071E-4,0.2761
4.072E-4,0.2762
4.074E-4,0.2763
4.077E-4,0.2765
4.08E-4,0.2767
4.08E-4,0.3613
4.08E-4,0.3613
4.08E-4,0.3613
4.08E-4,0.3613
4.08E-4,0.3613
4.08E-4,0.3613
4.08E-4,0.3613
4.08E-4,0.3613
4.08E-4,0.3613
4.08E-4,0.3613
4.08E-4,0.3613
4.08E-4,0.3613
4.081E-4,0.3613
4.081E-4,0.3613
4.082E-4,0.3613
4.083E-4,0.3613
4.086E-4,0.3613
4.09E-4,0.3613
4.09E-4,0.3613
4.09E-4,0.3613
4.09E-4,0.3613
4.091E-4,0.3613
4.091E-4,0.3613
4.091E-4,0.3614
4.092E-4,0.3614
4.094E-4,0.3615
4.097E-4,0.3617
4.1E-4,0.3619
4.1E-4,0.4408
4.1E-4,0.4408
4.1E-4,0.4408
4.1E-4,0.4408
4.101E-4,0.4408
4.101E-4,0.4408
4.102E-4,0.4408
4.103E-4,0.4408
4.106E-4,0.4408
4.11E-4,0.4408
4.11E-4,0.4408
4.11E-4,0.4408
4.11E-4,0.4408
4.111E-4,0.4409
4.111E-4,0.4409
4.111E-4,0.4409
4.113E-4,0.4409
4.115E-4,0.4410
4.117E-4,0.4412
4.12E-4,0.4414
4.12E-4,0.5134
4.12E-4,0.5134
4.12E-4,0.5134
4.12E-4,0.5134
4.121E-4,0.5134
4.121E-4,0.5134
4.122E-4,0.5134
4.123E-4,0.5134
4.126E-4,0.5134
4.13E-4,0.5134
4.13E-4,0.5134
4.13E-4,0.5134
4.13E-4,0.5134
4.131E-4,0.5134
4.131E-4,0.5134
4.131E-4,0.5135
4.133E-4,0.5135
4.135E-4,0.5136
4.137E-4,0.5137
4.14E-4,0.5139
4.14E-4,0.5779
4.14E-4,0.5779
4.14E-4,0.5779
4.14E-4,0.5779
4.14E-4,0.5779
4.14E-4,0.5779
4.14E-4,0.5779
4.14E-4,0.5779
4.14E-4,0.5779
4.141E-4,0.5779
4.141E-4,0.5779
4.141E-4,0.5779
4.142E-4,0.5779
4.144E-4,0.5779
4.147E-4,0.5779
4.15E-4,0.5779
4.15E-4,0.5779
4.15E-4,0.5779
4.15E-4,0.5779
4.151E-4,0.5779
4.151E-4,0.5779
4.152E-4,0.5779
4.153E-4,0.5780
4.155E-4,0.5781
4.16E-4,0.5783
4.16E-4,0.6332
4.16E-4,0.6332
4.16E-4,0.6332
4.16E-4,0.6332
4.161E-4,0.6332
4.161E-4,0.6332
4.162E-4,0.6332
4.164E-4,0.6332
4.167E-4,0.6332
4.17E-4,0.6332
4.17E-4,0.6332
4.17E-4,0.6333
4.171E-4,0.6333
4.171E-4,0.6333
4.171E-4,0.6333
4.172E-4,0.6333
4.174E-4,0.6333
4.177E-4,0.6335
4.18E-4,0.6336
4.18E-4,0.6786
4.18E-4,0.6786
4.18E-4,0.6786
4.18E-4,0.6786
4.181E-4,0.6786
4.181E-4,0.6786
4.182E-4,0.6786
4.184E-4,0.6786
4.187E-4,0.6786
4.19E-4,0.6786
4.19E-4,0.6786
4.19E-4,0.6786
4.191E-4,0.6786
4.191E-4,0.6786
4.191E-4,0.6786
4.192E-4,0.6787
4.194E-4,0.6787
4.197E-4,0.6788
4.2E-4,0.6789
4.2E-4,0.7133
4.2E-4,0.7133
4.2E-4,0.7133
4.201E-4,0.7133
4.201E-4,0.7133
4.201E-4,0.7133
4.202E-4,0.7133
4.205E-4,0.7133
4.207E-4,0.7133
4.21E-4,0.7133
4.21E-4,0.7133
4.21E-4,0.7133
4.211E-4,0.7133
4.211E-4,0.7133
4.211E-4,0.7133
4.212E-4,0.7133
4.214E-4,0.7134
4.217E-4,0.7134
4.22E-4,0.7135
4.22E-4,0.7367
4.22E-4,0.7367
4.221E-4,0.7367
4.221E-4,0.7367
4.221E-4,0.7367
4.222E-4,0.7367
4.223E-4,0.7367
4.227E-4,0.7367
4.23E-4,0.7367
4.23E-4,0.7367
4.23E-4,0.7367
4.231E-4,0.7367
4.231E-4,0.7367
4.232E-4,0.7367
4.233E-4,0.7367
4.236E-4,0.7368
4.24E-4,0.7368
4.24E-4,0.7485
4.24E-4,0.7485
4.241E-4,0.7485
4.241E-4,0.7485
4.241E-4,0.7485
4.242E-4,0.7485
4.244E-4,0.7485
4.247E-4,0.7485
4.25E-4,0.7485
4.25E-4,0.7485
4.25E-4,0.7485
4.251E-4,0.7485
4.251E-4,0.7485
4.252E-4,0.7485
4.255E-4,0.7485
4.257E-4,0.7485
4.26E-4,0.7485
4.26E-4,0.7485
4.26E-4,0.7485
4.261E-4,0.7485
4.262E-4,0.7485
4.263E-4,0.7485
4.266E-4,0.7485
4.270E-4,0.7485
4.270E-4,0.7485
4.270E-4,0.7485
4.271E-4,0.7485
4.271E-4,0.7485
4.272E-4,0.7485
4.273E-4,0.7485
4.277E-4,0.7485
4.28E-4,0.7484
4.28E-4,0.7367
4.28E-4,0.7367
4.281E-4,0.7367
4.281E-4,0.7367
4.281E-4,0.7367
4.282E-4,0.7367
4.284E-4,0.7367
4.287E-4,0.7367
4.29E-4,0.7367
4.29E-4,0.7367
4.29E-4,0.7367
4.291E-4,0.7367
4.291E-4,0.7367
4.292E-4,0.7367
4.293E-4,0.7367
4.295E-4,0.7366
4.298E-4,0.7366
4.3E-4,0.7366
4.3E-4,0.7133
4.3E-4,0.7133
4.301E-4,0.7133
4.301E-4,0.7133
4.301E-4,0.7133
4.302E-4,0.7133
4.303E-4,0.7133
4.307E-4,0.7133
4.310E-4,0.7133
4.310E-4,0.7133
4.310E-4,0.7133
4.311E-4,0.7133
4.311E-4,0.7133
4.311E-4,0.7133
4.312E-4,0.7133
4.314E-4,0.7132
4.317E-4,0.7131
4.32E-4,0.7130
4.32E-4,0.6786
4.32E-4,0.6786
4.32E-4,0.6786
4.321E-4,0.6786
4.321E-4,0.6786
4.321E-4,0.6786
4.322E-4,0.6786
4.325E-4,0.6786
4.327E-4,0.6786
4.33E-4,0.6786
4.33E-4,0.6786
4.33E-4,0.6786
4.331E-4,0.6786
4.331E-4,0.6786
4.331E-4,0.6786
4.332E-4,0.6786
4.334E-4,0.6785
4.337E-4,0.6784
4.34E-4,0.6783
4.34E-4,0.6332
4.34E-4,0.6332
4.34E-4,0.6332
4.34E-4,0.6332
4.341E-4,0.6332
4.341E-4,0.6332
4.342E-4,0.6332
4.344E-4,0.6332
4.347E-4,0.6332
4.350E-4,0.6332
4.350E-4,0.6332
4.350E-4,0.6332
4.351E-4,0.6332
4.351E-4,0.6332
4.351E-4,0.6332
4.352E-4,0.6332
4.353E-4,0.6332
4.356E-4,0.6331
4.36E-4,0.6328
4.36E-4,0.5779
4.36E-4,0.5779
4.36E-4,0.5779
4.36E-4,0.5779
4.361E-4,0.5779
4.361E-4,0.5779
4.362E-4,0.5779
4.364E-4,0.5779
4.367E-4,0.5779
4.37E-4,0.5779
4.37E-4,0.5779
4.37E-4,0.5779
4.37E-4,0.5779
4.371E-4,0.5779
4.371E-4,0.5779
4.372E-4,0.5778
4.373E-4,0.5778
4.375E-4,0.5777
4.378E-4,0.5776
4.38E-4,0.5774
4.38E-4,0.5134
4.38E-4,0.5134
4.38E-4,0.5134
4.38E-4,0.5134
4.38E-4,0.5134
4.38E-4,0.5134
4.38E-4,0.5134
4.38E-4,0.5134
4.38E-4,0.5134
4.381E-4,0.5134
4.381E-4,0.5134
4.381E-4,0.5134
4.382E-4,0.5134
4.384E-4,0.5134
4.387E-4,0.5134
4.39E-4,0.5134
4.39E-4,0.5134
4.39E-4,0.5134
4.39E-4,0.5134
4.391E-4,0.5134
4.391E-4,0.5134
4.391E-4,0.5134
4.393E-4,0.5133
4.395E-4,0.5132
4.397E-4,0.5131
4.4E-4,0.5129
4.4E-4,0.4408
4.4E-4,0.4408
4.4E-4,0.4408
4.4E-4,0.4408
4.401E-4,0.4408
4.401E-4,0.4408
4.402E-4,0.4408
4.403E-4,0.4408
4.406E-4,0.4408
4.41E-4,0.4408
4.41E-4,0.4408
4.41E-4,0.4408
4.41E-4,0.4408
4.411E-4,0.4408
4.411E-4,0.4408
4.411E-4,0.4408
4.412E-4,0.4407
4.415E-4,0.4406
4.417E-4,0.4405
4.42E-4,0.4403
4.42E-4,0.3613
4.42E-4,0.3613
4.42E-4,0.3613
4.42E-4,0.3613
4.421E-4,0.3613
4.421E-4,0.3613
4.422E-4,0.3613
4.423E-4,0.3613
4.426E-4,0.3613
4.43E-4,0.3613
4.43E-4,0.3613
4.43E-4,0.3613
4.43E-4,0.3613
4.431E-4,0.3613
4.431E-4,0.3613
4.431E-4,0.3613
4.432E-4,0.3612
4.434E-4,0.3611
4.437E-4,0.3609
4.44E-4,0.3607
4.44E-4,0.2761
4.44E-4,0.2761
4.44E-4,0.2761
4.44E-4,0.2761
4.44E-4,0.2761
4.44E-4,0.2761
4.44E-4,0.2761
4.44E-4,0.2761
4.44E-4,0.2761
4.44E-4,0.2761
4.44E-4,0.2761
4.44E-4,0.2761
4.441E-4,0.2761
4.441E-4,0.2761
4.442E-4,0.2761
4.443E-4,0.2761
4.446E-4,0.2761
4.45E-4,0.2761
4.45E-4,0.2761
4.45E-4,0.2761
4.45E-4,0.2761
4.451E-4,0.2761
4.451E-4,0.2761
4.451E-4,0.2760
4.452E-4,0.2760
4.454E-4,0.2759
4.457E-4,0.2757
4.46E-4,0.2754
4.46E-4,0.1865
4.46E-4,0.1865
4.46E-4,0.1865
4.46E-4,0.1865
4.461E-4,0.1865
4.461E-4,0.1865
4.462E-4,0.1865
4.463E-4,0.1865
4.466E-4,0.1865
4.47E-4,0.1865
4.47E-4,0.1865
4.47E-4,0.1865
4.47E-4,0.1865
4.471E-4,0.1865
4.471E-4,0.1865
4.471E-4,0.1865
4.472E-4,0.1864
4.474E-4,0.1863
4.477E-4,0.1861
4.48E-4,0.1858
4.48E-4,0.09401
4.48E-4,0.09401
4.48E-4,0.09401
4.48E-4,0.09401
4.481E-4,0.09401
4.481E-4,0.09401
4.482E-4,0.09401
4.483E-4,0.09401
4.486E-4,0.09401
4.49E-4,0.09401
4.49E-4,0.09400
4.49E-4,0.09400
4.49E-4,0.09399
4.491E-4,0.09399
4.491E-4,0.09397
4.491E-4,0.09395
4.492E-4,0.09390
4.494E-4,0.09378
4.497E-4,0.09356
4.5E-4,0.09331
4.5E-4,8.813E-6
4.5E-4,8.812E-6
4.5E-4,8.812E-6
4.5E-4,8.812E-6
4.501E-4,8.812E-6
4.501E-4,8.812E-6
4.502E-4,8.812E-6
4.503E-4,8.812E-6
4.506E-4,8.812E-6
4.51E-4,8.811E-6
4.51E-4,4.055E-6
4.51E-4,-1.029E-6
4.51E-4,-5.904E-6
4.51E-4,-7.607E-6
4.51E-4,-9.215E-6
4.511E-4,-1.083E-5
4.511E-4,-1.203E-5
4.511E-4,-1.341E-5
4.511E-4,-1.477E-5
4.511E-4,-1.749E-5
4.511E-4,-2.298E-5
4.511E-4,-3.412E-5
4.511E-4,-5.707E-5
4.512E-4,-1.056E-4
4.514E-4,-2.133E-4
4.518E-4,-4.709E-4
4.520E-4,-6.891E-4
4.520E-4,-0.09400
4.520E-4,-0.09400
4.520E-4,-0.09400
4.520E-4,-0.09400
4.521E-4,-0.09400
4.521E-4,-0.09400
4.522E-4,-0.09400
4.523E-4,-0.09400
4.526E-4,-0.09400
4.53E-4,-0.09400
4.53E-4,-0.09400
4.53E-4,-0.09400
4.53E-4,-0.09401
4.531E-4,-0.09402
4.531E-4,-0.09403
4.531E-4,-0.09405
4.532E-4,-0.09411
4.534E-4,-0.09422
4.537E-4,-0.09444
4.54E-4,-0.09468
4.54E-4,-0.1865
4.54E-4,-0.1865
4.54E-4,-0.1865
4.54E-4,-0.1865
4.541E-4,-0.1865
4.541E-4,-0.1865
4.542E-4,-0.1865
4.543E-4,-0.1865
4.546E-4,-0.1865
4.55E-4,-0.1865
4.55E-4,-0.1865
4.55E-4,-0.1865
4.55E-4,-0.1865
4.551E-4,-0.1865
4.551E-4,-0.1865
4.551E-4,-0.1866
4.552E-4,-0.1866
4.554E-4,-0.1867
4.557E-4,-0.1869
4.560E-4,-0.1872
4.560E-4,-0.2761
4.560E-4,-0.2761
4.560E-4,-0.2761
4.560E-4,-0.2761
4.561E-4,-0.2761
4.561E-4,-0.2761
4.562E-4,-0.2761
4.563E-4,-0.2761
4.566E-4,-0.2761
4.57E-4,-0.2761
4.57E-4,-0.2761
4.57E-4,-0.2761
4.57E-4,-0.2761
4.571E-4,-0.2761
4.571E-4,-0.2761
4.571E-4,-0.2761
4.572E-4,-0.2762
4.574E-4,-0.2763
4.577E-4,-0.2765
4.58E-4,-0.2767
4.58E-4,-0.3613
4.58E-4,-0.3613
4.58E-4,-0.3613
4.58E-4,-0.3613
4.58E-4,-0.3613
4.58E-4,-0.3613
4.58E-4,-0.3613
4.58E-4,-0.3613
4.58E-4,-0.3613
4.58E-4,-0.3613
4.58E-4,-0.3613
4.58E-4,-0.3613
4.581E-4,-0.3613
4.581E-4,-0.3613
4.582E-4,-0.3613
4.583E-4,-0.3613
4.586E-4,-0.3613
4.59E-4,-0.3613
4.59E-4,-0.3613
4.59E-4,-0.3613
4.59E-4,-0.3613
4.591E-4,-0.3613
4.591E-4,-0.3613
4.591E-4,-0.3614
4.592E-4,-0.3614
4.594E-4,-0.3615
4.597E-4,-0.3617
4.600E-4,-0.3619
4.600E-4,-0.4408
4.600E-4,-0.4408
4.600E-4,-0.4408
4.600E-4,-0.4408
4.601E-4,-0.4408
4.601E-4,-0.4408
4.602E-4,-0.4408
4.603E-4,-0.4408
4.606E-4,-0.4408
4.61E-4,-0.4408
4.61E-4,-0.4408
4.61E-4,-0.4408
4.61E-4,-0.4408
4.611E-4,-0.4409
4.611E-4,-0.4409
4.611E-4,-0.4409
4.613E-4,-0.4409
4.615E-4,-0.4410
4.617E-4,-0.4412
4.62E-4,-0.4414
4.62E-4,-0.5134
4.62E-4,-0.5134
4.62E-4,-0.5134
4.62E-4,-0.5134
4.621E-4,-0.5134
4.621E-4,-0.5134
4.622E-4,-0.5134
4.623E-4,-0.5134
4.626E-4,-0.5134
4.63E-4,-0.5134
4.63E-4,-0.5134
4.63E-4,-0.5134
4.63E-4,-0.5134
4.631E-4,-0.5134
4.631E-4,-0.5134
4.631E-4,-0.5135
4.633E-4,-0.5135
4.635E-4,-0.5136
4.637E-4,-0.5137
4.64E-4,-0.5139
4.64E-4,-0.5779
4.64E-4,-0.5779
4.64E-4,-0.5779
4.64E-4,-0.5779
4.64E-4,-0.5779
4.64E-4,-0.5779
4.64E-4,-0.5779
4.64E-4,-0.5779
4.64E-4,-0.5779
4.641E-4,-0.5779
4.641E-4,-0.5779
4.641E-4,-0.5779
4.642E-4,-0.5779
4.644E-4,-0.5779
4.647E-4,-0.5779
4.65E-4,-0.5779
4.65E-4,-0.5779
4.65E-4,-0.5779
4.65E-4,-0.5779
4.651E-4,-0.5779
4.651E-4,-0.5779
4.652E-4,-0.5779
4.653E-4,-0.5780
4.655E-4,-0.5781
4.66E-4,-0.5783
4.66E-4,-0.6332
4.66E-4,-0.6332
4.66E-4,-0.6332
4.66E-4,-0.6332
4.661E-4,-0.6332
4.661E-4,-0.6332
4.662E-4,-0.6332
4.664E-4,-0.6332
4.667E-4,-0.6332
4.67E-4,-0.6332
4.67E-4,-0.6332
4.67E-4,-0.6333
4.671E-4,-0.6333
4.671E-4,-0.6333
4.671E-4,-0.6333
4.672E-4,-0.6333
4.674E-4,-0.6333
4.677E-4,-0.6335
4.68E-4,-0.6336
4.68E-4,-0.6786
4.68E-4,-0.6786
4.68E-4,-0.6786
4.68E-4,-0.6786
4.681E-4,-0.6786
4.681E-4,-0.6786
4.682E-4,-0.6786
4.684E-4,-0.6786
4.687E-4,-0.6786
4.69E-4,-0.6786
4.69E-4,-0.6786
4.69E-4,-0.6786
4.691E-4,-0.6786
4.691E-4,-0.6786
4.691E-4,-0.6786
4.692E-4,-0.6787
4.694E-4,-0.6787
4.697E-4,-0.6788
4.7E-4,-0.6789
4.7E-4,-0.7133
4.7E-4,-0.7133
4.7E-4,-0.7133
4.701E-4,-0.7133
4.701E-4,-0.7133
4.701E-4,-0.7133
4.702E-4,-0.7133
4.705E-4,-0.7133
4.707E-4,-0.7133
4.71E-4,-0.7133
4.71E-4,-0.7133
4.71E-4,-0.7133
4.711E-4,-0.7133
4.711E-4,-0.7133
4.711E-4,-0.7133
4.712E-4,-0.7133
4.714E-4,-0.7134
4.717E-4,-0.7134
4.72E-4,-0.7135
4.72E-4,-0.7367
4.72E-4,-0.7367
4.721E-4,-0.7367
4.721E-4,-0.7367
4.721E-4,-0.7367
4.722E-4,-0.7367
4.723E-4,-0.7367
4.727E-4,-0.7367
4.73E-4,-0.7367
4.73E-4,-0.7367
4.73E-4,-0.7367
4.731E-4,-0.7367
4.731E-4,-0.7367
4.732E-4,-0.7367
4.733E-4,-0.7367
4.736E-4,-0.7368
4.74E-4,-0.7368
4.74E-4,-0.7485
4.74E-4,-0.7485
4.741E-4,-0.7485
4.741E-4,-0.7485
4.741E-4,-0.7485
4.742E-4,-0.7485
4.744E-4,-0.7485
4.747E-4,-0.7485
4.75E-4,-0.7485
4.75E-4,-0.7485
4.75E-4,-0.7485
4.751E-4,-0.7485
4.751E-4,-0.7485
4.752E-4,-0.7485
4.755E-4,-0.7485
4.757E-4,-0.7485
4.76E-4,-0.7485
4.76E-4,-0.7485
4.76E-4,-0.7485
4.761E-4,-0.7485
4.762E-4,-0.7485
4.763E-4,-0.7485
4.766E-4,-0.7485
4.770E-4,-0.7485
4.770E-4,-0.7485
4.770E-4,-0.7485
4.771E-4,-0.7485
4.771E-4,-0.7485
4.772E-4,-0.7485
4.773E-4,-0.7485
4.777E-4,-0.7485
4.78E-4,-0.7484
4.78E-4,-0.7367
4.78E-4,-0.7367
4.781E-4,-0.7367
4.781E-4,-0.7367
4.781E-4,-0.7367
4.782E-4,-0.7367
4.784E-4,-0.7367
4.787E-4,-0.7367
4.79E-4,-0.7367
4.79E-4,-0.7367
4.79E-4,-0.7367
4.791E-4,-0.7367
4.791E-4,-0.7367
4.792E-4,-0.7367
4.793E-4,-0.7367
4.795E-4,-0.7366
4.798E-4,-0.7366
4.8E-4,-0.7366
4.8E-4,-0.7133
4.8E-4,-0.7133
4.801E-4,-0.7133
4.801E-4,-0.7133
4.801E-4,-0.7133
4.802E-4,-0.7133
4.803E-4,-0.7133
4.807E-4,-0.7133
4.810E-4,-0.7133
4.810E-4,-0.7133
4.810E-4,-0.7133
4.811E-4,-0.7133
4.811E-4,-0.7133
4.811E-4,-0.7133
4.812E-4,-0.7133
4.814E-4,-0.7132
4.817E-4,-0.7131
4.82E-4,-0.7130
4.82E-4,-0.6786
4.82E-4,-0.6786
4.82E-4,-0.6786
4.821E-4,-0.6786
4.821E-4,-0.6786
4.821E-4,-0.6786
4.822E-4,-0.6786
4.825E-4,-0.6786
4.827E-4,-0.6786
4.83E-4,-0.6786
4.83E-4,-0.6786
4.83E-4,-0.6786
4.831E-4,-0.6786
4.831E-4,-0.6786
4.831E-4,-0.6786
4.832E-4,-0.6786
4.834E-4,-0.6785
4.837E-4,-0.6784
4.84E-4,-0.6783
4.84E-4,-0.6332
4.84E-4,-0.6332
4.84E-4,-0.6332
4.84E-4,-0.6332
4.841E-4,-0.6332
4.841E-4,-0.6332
4.842E-4,-0.6332
4.844E-4,-0.6332
4.847E-4,-0.6332
4.850E-4,-0.6332
4.850E-4,-0.6332
4.850E-4,-0.6332
4.851E-4,-0.6332
4.851E-4,-0.6332
4.851E-4,-0.6332
4.852E-4,-0.6332
4.853E-4,-0.6332
4.856E-4,-0.6331
4.86E-4,-0.6328
4.86E-4,-0.5779
4.86E-4,-0.5779
4.86E-4,-0.5779
4.86E-4,-0.5779
4.861E-4,-0.5779
4.861E-4,-0.5779
4.862E-4,-0.5779
4.864E-4,-0.5779
4.867E-4,-0.5779
4.87E-4,-0.5779
4.87E-4,-0.5779
4.87E-4,-0.5779
4.87E-4,-0.5779
4.871E-4,-0.5779
4.871E-4,-0.5779
4.872E-4,-0.5778
4.873E-4,-0.5778
4.875E-4,-0.5777
4.878E-4,-0.5776
4.88E-4,-0.5774
4.88E-4,-0.5134
4.88E-4,-0.5134
4.88E-4,-0.5134
4.88E-4,-0.5134
4.88E-4,-0.5134
4.88E-4,-0.5134
4.88E-4,-0.5134
4.88E-4,-0.5134
4.88E-4,-0.5134
4.881E-4,-0.5134
4.881E-4,-0.5134
4.881E-4,-0.5134
4.882E-4,-0.5134
4.884E-4,-0.5134
4.887E-4,-0.5134
4.89E-4,-0.5134
4.89E-4,-0.5134
4.89E-4,-0.5134
4.89E-4,-0.5134
4.891E-4,-0.5134
4.891E-4,-0.5134
4.891E-4,-0.5134
4.893E-4,-0.5133
4.895E-4,-0.5132
4.897E-4,-0.5131
4.9E-4,-0.5129
4.9E-4,-0.4408
4.9E-4,-0.4408
4.9E-4,-0.4408
4.9E-4,-0.4408
4.901E-4,-0.4408
4.901E-4,-0.4408
4.902E-4,-0.4408
4.903E-4,-0.4408
4.906E-4,-0.4408
4.91E-4,-0.4408
4.91E-4,-0.4408
4.91E-4,-0.4408
4.91E-4,-0.4408
4.911E-4,-0.4408
4.911E-4,-0.4408
4.911E-4,-0.4408
4.912E-4,-0.4407
4.915E-4,-0.4406
4.917E-4,-0.4405
4.92E-4,-0.4403
4.92E-4,-0.3613
4.92E-4,-0.3613
4.92E-4,-0.3613
4.92E-4,-0.3613
4.921E-4,-0.3613
4.921E-4,-0.3613
4.922E-4,-0.3613
4.923E-4,-0.3613
4.926E-4,-0.3613
4.93E-4,-0.3613
4.93E-4,-0.3613
4.93E-4,-0.3613
4.93E-4,-0.3613
4.931E-4,-0.3613
4.931E-4,-0.3613
4.931E-4,-0.3613
4.932E-4,-0.3612
4.934E-4,-0.3611
4.937E-4,-0.3609
4.94E-4,-0.3607
4.94E-4,-0.2761
4.94E-4,-0.2761
4.94E-4,-0.2761
4.94E-4,-0.2761
4.94E-4,-0.2761
4.94E-4,-0.2761
4.94E-4,-0.2761
4.94E-4,-0.2761
4.94E-4,-0.2761
4.94E-4,-0.2761
4.94E-4,-0.2761
4.94E-4,-0.2761
4.941E-4,-0.2761
4.941E-4,-0.2761
4.942E-4,-0.2761
4.943E-4,-0.2761
4.946E-4,-0.2761
4.95E-4,-0.2761
4.95E-4,-0.2761
4.95E-4,-0.2761
4.95E-4,-0.2761
4.951E-4,-0.2761
4.951E-4,-0.2761
4.951E-4,-0.2760
4.952E-4,-0.2760
4.954E-4,-0.2759
4.957E-4,-0.2757
4.96E-4,-0.2754
4.96E-4,-0.1865
4.96E-4,-0.1865
4.96E-4,-0.1865
4.96E-4,-0.1865
4.961E-4,-0.1865
4.961E-4,-0.1865
4.962E-4,-0.1865
4.963E-4,-0.1865
4.966E-4,-0.1865
4.97E-4,-0.1865
4.97E-4,-0.1865
4.97E-4,-0.1865
4.97E-4,-0.1865
4.971E-4,-0.1865
4.971E-4,-0.1865
4.971E-4,-0.1865
4.972E-4,-0.1864
4.974E-4,-0.1863
4.977E-4,-0.1861
4.98E-4,-0.1858
4.98E-4,-0.09401
4.98E-4,-0.09401
4.98E-4,-0.09401
4.98E-4,-0.09401
4.981E-4,-0.09401
4.981E-4,-0.09401
4.982E-4,-0.09401
4.983E-4,-0.09401
4.986E-4,-0.09401
4.99E-4,-0.09401
4.99E-4,-0.09400
4.99E-4,-0.09400
4.99E-4,-0.09399
4.991E-4,-0.09399
4.991E-4,-0.09397
4.991E-4,-0.09395
4.992E-4,-0.09390
4.994E-4,-0.09378
4.997E-4,-0.09356
5.0E-4,-0.09331
5.0E-4,-8.813E-6
5.0E-4,-8.812E-6
5.0E-4,-8.812E-6
5.0E-4,-8.812E-6
5.001E-4,-8.812E-6
5.001E-4,-8.812E-6
5.002E-4,-8.812E-6
5.003E-4,-8.812E-6
5.006E-4,-8.812E-6
5.01E-4,-8.811E-6
5.01E-4,-4.055E-6
5.01E-4,1.029E-6
5.01E-4,5.904E-6
5.01E-4,7.607E-6
5.01E-4,9.215E-6
5.011E-4,1.083E-5
5.011E-4,1.203E-5
5.011E-4,1.341E-5
5.011E-4,1.477E-5
5.011E-4,1.749E-5
5.011E-4,2.298E-5
5.011E-4,3.412E-5
5.011E-4,5.707E-5
5.012E-4,1.056E-4
5.014E-4,2.133E-4
5.018E-4,4.709E-4
5.020E-4,6.891E-4
5.020E-4,0.09400
5.020E-4,0.09400
5.020E-4,0.09400
5.020E-4,0.09400
5.021E-4,0.09400
5.021E-4,0.09400
5.022E-4,0.09400
5.023E-4,0.09400
5.026E-4,0.09400
5.03E-4,0.09400
5.03E-4,0.09400
5.03E-4,0.09400
5.03E-4,0.09401
5.031E-4,0.09402
5.031E-4,0.09403
5.031E-4,0.09405
5.032E-4,0.09411
5.034E-4,0.09422
5.037E-4,0.09444
5.04E-4,0.09468
5.04E-4,0.1865
5.04E-4,0.1865
5.04E-4,0.1865
5.04E-4,0.1865
5.041E-4,0.1865
5.041E-4,0.1865
5.042E-4,0.1865
5.043E-4,0.1865
5.046E-4,0.1865
5.05E-4,0.1865
5.05E-4,0.1865
5.05E-4,0.1865
5.05E-4,0.1865
5.051E-4,0.1865
5.051E-4,0.1865
5.051E-4,0.1866
5.052E-4,0.1866
5.054E-4,0.1867
5.057E-4,0.1869
5.060E-4,0.1872
5.060E-4,0.2761
5.060E-4,0.2761
5.060E-4,0.2761
5.060E-4,0.2761
5.061E-4,0.2761
5.061E-4,0.2761
5.062E-4,0.2761
5.063E-4,0.2761
5.066E-4,0.2761
5.07E-4,0.2761
5.07E-4,0.2761
5.07E-4,0.2761
5.07E-4,0.2761
5.071E-4,0.2761
5.071E-4,0.2761
5.071E-4,0.2761
5.072E-4,0.2762
5.074E-4,0.2763
5.077E-4,0.2765
5.08E-4,0.2767
5.08E-4,0.3613
5.08E-4,0.3613
5.08E-4,0.3613
5.08E-4,0.3613
5.08E-4,0.3613
5.08E-4,0.3613
5.08E-4,0.3613
5.08E-4,0.3613
5.08E-4,0.3613
5.08E-4,0.3613
5.08E-4,0.3613
5.08E-4,0.3613
5.081E-4,0.3613
5.081E-4,0.3613
5.082E-4,0.3613
5.083E-4,0.3613
5.086E-4,0.3613
5.09E-4,0.3613
5.09E-4,0.3613
5.09E-4,0.3613
5.09E-4,0.3613
5.091E-4,0.3613
5.091E-4,0.3613
5.091E-4,0.3614
5.092E-4,0.3614
5.094E-4,0.3615
5.097E-4,0.3617
5.100E-4,0.3619
5.100E-4,0.4408
5.100E-4,0.4408
5.100E-4,0.4408
5.100E-4,0.4408
5.101E-4,0.4408
5.101E-4,0.4408
5.102E-4,0.4408
5.103E-4,0.4408
5.106E-4,0.4408
5.11E-4,0.4408
5.11E-4,0.4408
5.11E-4,0.4408
5.11E-4,0.4408
5.111E-4,0.4409
5.111E-4,0.4409
5.111E-4,0.4409
5.113E-4,0.4409
5.115E-4,0.4410
5.117E-4,0.4412
5.12E-4,0.4414
5.12E-4,0.5134
5.12E-4,0.5134
5.12E-4,0.5134
5.12E-4,0.5134
5.121E-4,0.5134
5.121E-4,0.5134
5.122E-4,0.5134
5.123E-4,0.5134
5.126E-4,0.5134
5.13E-4,0.5134
5.13E-4,0.5134
5.13E-4,0.5134
5.13E-4,0.5134
5.131E-4,0.5134
5.131E-4,0.5134
5.131E-4,0.5135
5.133E-4,0.5135
5.135E-4,0.5136
5.137E-4,0.5137
5.14E-4,0.5139
5.14E-4,0.5779
5.14E-4,0.5779
5.14E-4,0.5779
5.14E-4,0.5779
5.14E-4,0.5779
5.14E-4,0.5779
5.14E-4,0.5779
5.14E-4,0.5779
5.14E-4,0.5779
5.141E-4,0.5779
5.141E-4,0.5779
5.141E-4,0.5779
5.142E-4,0.5779
5.144E-4,0.5779
5.147E-4,0.5779
5.15E-4,0.5779
5.15E-4,0.5779
5.15E-4,0.5779
5.15E-4,0.5779
5.151E-4,0.5779
5.151E-4,0.5779
5.152E-4,0.5779
5.153E-4,0.5780
5.155E-4,0.5781
5.16E-4,0.5783
5.16E-4,0.6332
5.16E-4,0.6332
5.16E-4,0.6332
5.16E-4,0.6332
5.161E-4,0.6332
5.161E-4,0.6332
5.162E-4,0.6332
5.164E-4,0.6332
5.167E-4,0.6332
5.17E-4,0.6332
5.17E-4,0.6332
5.17E-4,0.6333
5.171E-4,0.6333
5.171E-4,0.6333
5.171E-4,0.6333
5.172E-4,0.6333
5.174E-4,0.6333
5.177E-4,0.6335
5.18E-4,0.6336
5.18E-4,0.6786
5.18E-4,0.6786
5.18E-4,0.6786
5.18E-4,0.6786
5.181E-4,0.6786
5.181E-4,0.6786
5.182E-4,0.6786
5.184E-4,0.6786
5.187E-4,0.6786
5.19E-4,0.6786
5.19E-4,0.6786
5.19E-4,0.6786
5.191E-4,0.6786
5.191E-4,0.6786
5.191E-4,0.6786
5.192E-4,0.6787
5.194E-4,0.6787
5.197E-4,0.6788
5.2E-4,0.6789
5.2E-4,0.7133
5.2E-4,0.7133
5.2E-4,0.7133
5.201E-4,0.7133
5.201E-4,0.7133
5.201E-4,0.7133
5.202E-4,0.7133
5.205E-4,0.7133
5.207E-4,0.7133
5.21E-4,0.7133
5.21E-4,0.7133
5.21E-4,0.7133
5.211E-4,0.7133
5.211E-4,0.7133
5.211E-4,0.7133
5.212E-4,0.7133
5.214E-4,0.7134
5.217E-4,0.7134
5.22E-4,0.7135
5.22E-4,0.7367
5.22E-4,0.7367
5.221E-4,0.7367
5.221E-4,0.7367
5.221E-4,0.7367
5.222E-4,0.7367
5.223E-4,0.7367
5.227E-4,0.7367
5.23E-4,0.7367
5.23E-4,0.7367
5.23E-4,0.7367
5.231E-4,0.7367
5.231E-4,0.7367
5.232E-4,0.7367
5.233E-4,0.7367
5.236E-4,0.7368
5.24E-4,0.7368
5.24E-4,0.7485
5.24E-4,0.7485
5.241E-4,0.7485
5.241E-4,0.7485
5.241E-4,0.7485
5.242E-4,0.7485
5.244E-4,0.7485
5.247E-4,0.7485
5.25E-4,0.7485
5.25E-4,0.7485
5.25E-4,0.7485
5.251E-4,0.7485
5.251E-4,0.7485
5.252E-4,0.7485
5.255E-4,0.7485
5.257E-4,0.7485
5.26E-4,0.7485
5.26E-4,0.7485
5.26E-4,0.7485
5.261E-4,0.7485
5.262E-4,0.7485
5.263E-4,0.7485
5.266E-4,0.7485
5.270E-4,0.7485
5.270E-4,0.7485
5.270E-4,0.7485
5.271E-4,0.7485
5.271E-4,0.7485
5.272E-4,0.7485
5.273E-4,0.7485
5.277E-4,0.7485
5.28E-4,0.7484
5.28E-4,0.7367
5.28E-4,0.7367
5.281E-4,0.7367
5.281E-4,0.7367
5.281E-4,0.7367
5.282E-4,0.7367
5.284E-4,0.7367
5.287E-4,0.7367
5.29E-4,0.7367
5.29E-4,0.7367
5.29E-4,0.7367
5.291E-4,0.7367
5.291E-4,0.7367
5.292E-4,0.7367
5.293E-4,0.7367
5.295E-4,0.7366
5.298E-4,0.7366
5.3E-4,0.7366
5.3E-4,0.7133
5.3E-4,0.7133
5.301E-4,0.7133
5.301E-4,0.7133
5.301E-4,0.7133
5.302E-4,0.7133
5.303E-4,0.7133
5.307E-4,0.7133
5.310E-4,0.7133
5.310E-4,0.7133
5.310E-4,0.7133
5.311E-4,0.7133
5.311E-4,0.7133
5.311E-4,0.7133
5.312E-4,0.7133
5.314E-4,0.7132
5.317E-4,0.7131
5.32E-4,0.7130
5.32E-4,0.6786
5.32E-4,0.6786
5.32E-4,0.6786
5.321E-4,0.6786
5.321E-4,0.6786
5.321E-4,0.6786
5.322E-4,0.6786
5.325E-4,0.6786
5.327E-4,0.6786
5.33E-4,0.6786
5.33E-4,0.6786
5.33E-4,0.6786
5.331E-4,0.6786
5.331E-4,0.6786
5.331E-4,0.6786
5.332E-4,0.6786
5.334E-4,0.6785
5.337E-4,0.6784
5.34E-4,0.6783
5.34E-4,0.6332
5.34E-4,0.6332
5.34E-4,0.6332
5.34E-4,0.6332
5.341E-4,0.6332
5.341E-4,0.6332
5.342E-4,0.6332
5.344E-4,0.6332
5.347E-4,0.6332
5.350E-4,0.6332
5.350E-4,0.6332
5.350E-4,0.6332
5.351E-4,0.6332
5.351E-4,0.6332
5.351E-4,0.6332
5.352E-4,0.6332
5.353E-4,0.6332
5.356E-4,0.6331
5.36E-4,0.6328
5.36E-4,0.5779
5.36E-4,0.5779
5.36E-4,0.5779
5.36E-4,0.5779
5.361E-4,0.5779
5.361E-4,0.5779
5.362E-4,0.5779
5.364E-4,0.5779
5.367E-4,0.5779
5.37E-4,0.5779
5.37E-4,0.5779
5.37E-4,0.5779
5.37E-4,0.5779
5.371E-4,0.5779
5.371E-4,0.5779
5.372E-4,0.5778
5.373E-4,0.5778
5.375E-4,0.5777
5.378E-4,0.5776
5.38E-4,0.5774
5.38E-4,0.5134
5.38E-4,0.5134
5.38E-4,0.5134
5.38E-4,0.5134
5.38E-4,0.5134
5.38E-4,0.5134
5.38E-4,0.5134
5.38E-4,0.5134
5.38E-4,0.5134
5.381E-4,0.5134
5.381E-4,0.5134
5.381E-4,0.5134
5.382E-4,0.5134
5.384E-4,0.5134
5.387E-4,0.5134
5.39E-4,0.5134
5.39E-4,0.5134
5.39E-4,0.5134
5.39E-4,0.5134
5.391E-4,0.5134
5.391E-4,0.5134
5.391E-4,0.5134
5.393E-4,0.5133
5.395E-4,0.5132
5.397E-4,0.5131
5.4E-4,0.5129
5.4E-4,0.4408
5.4E-4,0.4408
5.4E-4,0.4408
5.4E-4,0.4408
5.401E-4,0.4408
5.401E-4,0.4408
5.402E-4,0.4408
5.403E-4,0.4408
5.406E-4,0.4408
5.41E-4,0.4408
5.41E-4,0.4408
5.41E-4,0.4408
5.41E-4,0.4408
5.411E-4,0.4408
5.411E-4,0.4408
5.411E-4,0.4408
5.412E-4,0.4407
5.415E-4,0.4406
5.417E-4,0.4405
5.42E-4,0.4403
5.42E-4,0.3613
5.42E-4,0.3613
5.42E-4,0.3613
5.42E-4,0.3613
5.421E-4,0.3613
5.421E-4,0.3613
5.422E-4,0.3613
5.423E-4,0.3613
5.426E-4,0.3613
5.43E-4,0.3613
5.43E-4,0.3613
5.43E-4,0.3613
5.43E-4,0.3613
5.431E-4,0.3613
5.431E-4,0.3613
5.431E-4,0.3613
5.432E-4,0.3612
5.434E-4,0.3611
5.437E-4,0.3609
5.44E-4,0.3607
5.44E-4,0.2761
5.44E-4,0.2761
5.44E-4,0.2761
5.44E-4,0.2761
5.44E-4,0.2761
5.44E-4,0.2761
5.44E-4,0.2761
5.44E-4,0.2761
5.44E-4,0.2761
5.44E-4,0.2761
5.44E-4,0.2761
5.44E-4,0.2761
5.441E-4,0.2761
5.441E-4,0.2761
5.442E-4,0.2761
5.443E-4,0.2761
5.446E-4,0.2761
5.45E-4,0.2761
5.45E-4,0.2761
5.45E-4,0.2761
5.45E-4,0.2761
5.451E-4,0.2761
5.451E-4,0.2761
5.451E-4,0.2760
5.452E-4,0.2760
5.454E-4,0.2759
5.457E-4,0.2757
5.46E-4,0.2754
5.46E-4,0.1865
5.46E-4,0.1865
5.46E-4,0.1865
5.46E-4,0.1865
5.461E-4,0.1865
5.461E-4,0.1865
5.462E-4,0.1865
5.463E-4,0.1865
5.466E-4,0.1865
5.47E-4,0.1865
5.47E-4,0.1865
5.47E-4,0.1865
5.47E-4,0.1865
5.471E-4,0.1865
5.471E-4,0.1865
5.471E-4,0.1865
5.472E-4,0.1864
5.474E-4,0.1863
5.477E-4,0.1861
5.48E-4,0.1858
5.48E-4,0.09401
5.48E-4,0.09401
5.48E-4,0.09401
5.48E-4,0.09401
5.481E-4,0.09401
5.481E-4,0.09401
5.482E-4,0.09401
5.483E-4,0.09401
5.486E-4,0.09401
5.49E-4,0.09401
5.49E-4,0.09400
5.49E-4,0.09400
5.49E-4,0.09399
5.491E-4,0.09399
5.491E-4,0.09397
5.491E-4,0.09395
5.492E-4,0.09390
5.494E-4,0.09378
5.497E-4,0.09356
5.5E-4,0.09331
5.5E-4,8.813E-6
5.5E-4,8.812E-6
5.5E-4,8.812E-6
5.5E-4,8.812E-6
5.501E-4,8.812E-6
5.501E-4,8.812E-6
5.502E-4,8.812E-6
5.503E-4,8.812E-6
5.506E-4,8.812E-6
5.51E-4,8.811E-6
5.51E-4,4.055E-6
5.51E-4,-1.029E-6
5.51E-4,-5.904E-6
5.51E-4,-7.607E-6
5.51E-4,-9.215E-6
5.511E-4,-1.083E-5
5.511E-4,-1.203E-5
5.511E-4,-1.341E-5
5.511E-4,-1.477E-5
5.511E-4,-1.749E-5
5.511E-4,-2.298E-5
5.511E-4,-3.412E-5
5.511E-4,-5.707E-5
5.512E-4,-1.056E-4
5.514E-4,-2.133E-4
5.518E-4,-4.709E-4
5.520E-4,-6.891E-4
5.520E-4,-0.09400
5.520E-4,-0.09400
5.520E-4,-0.09400
5.520E-4,-0.09400
5.521E-4,-0.09400
5.521E-4,-0.09400
5.522E-4,-0.09400
5.523E-4,-0.09400
5.526E-4,-0.09400
5.53E-4,-0.09400
5.53E-4,-0.09400
5.53E-4,-0.09400
5.53E-4,-0.09401
5.531E-4,-0.09402
5.531E-4,-0.09403
5.531E-4,-0.09405
5.532E-4,-0.09411
5.534E-4,-0.09422
5.537E-4,-0.09444
5.54E-4,-0.09468
5.54E-4,-0.1865
5.54E-4,-0.1865
5.54E-4,-0.1865
5.54E-4,-0.1865
5.541E-4,-0.1865
5.541E-4,-0.1865
5.542E-4,-0.1865
5.543E-4,-0.1865
5.546E-4,-0.1865
5.55E-4,-0.1865
5.55E-4,-0.1865
5.55E-4,-0.1865
5.55E-4,-0.1865
5.551E-4,-0.1865
5.551E-4,-0.1865
5.551E-4,-0.1866
5.552E-4,-0.1866
5.554E-4,-0.1867
5.557E-4,-0.1869
5.560E-4,-0.1872
5.560E-4,-0.2761
5.560E-4,-0.2761
5.560E-4,-0.2761
5.560E-4,-0.2761
5.561E-4,-0.2761
5.561E-4,-0.2761
5.562E-4,-0.2761
5.563E-4,-0.2761
5.566E-4,-0.2761
5.57E-4,-0.2761
5.57E-4,-0.2761
5.57E-4,-0.2761
5.57E-4,-0.2761
5.571E-4,-0.2761
5.571E-4,-0.2761
5.571E-4,-0.2761
5.572E-4,-0.2762
5.574E-4,-0.2763
5.577E-4,-0.2765
5.58E-4,-0.2767
5.58E-4,-0.3613
5.58E-4,-0.3613
5.58E-4,-0.3613
5.58E-4,-0.3613
5.58E-4,-0.3613
5.58E-4,-0.3613
5.58E-4,-0.3613
5.58E-4,-0.3613
5.58E-4,-0.3613
5.58E-4,-0.3613
5.58E-4,-0.3613
5.58E-4,-0.3613
5.581E-4,-0.3613
5.581E-4,-0.3613
5.582E-4,-0.3613
5.583E-4,-0.3613
5.586E-4,-0.3613
5.59E-4,-0.3613
5.59E-4,-0.3613
5.59E-4,-0.3613
5.59E-4,-0.3613
5.591E-4,-0.3613
5.591E-4,-0.3613
5.591E-4,-0.3614
5.592E-4,-0.3614
5.594E-4,-0.3615
5.597E-4,-0.3617
5.600E-4,-0.3619
5.600E-4,-0.4408
5.600E-4,-0.4408
5.600E-4,-0.4408
5.600E-4,-0.4408
5.601E-4,-0.4408
5.601E-4,-0.4408
5.602E-4,-0.4408
5.603E-4,-0.4408
5.606E-4,-0.4408
5.61E-4,-0.4408
5.61E-4,-0.4408
5.61E-4,-0.4408
5.61E-4,-0.4408
5.611E-4,-0.4409
5.611E-4,-0.4409
5.611E-4,-0.4409
5.613E-4,-0.4409
5.615E-4,-0.4410
5.617E-4,-0.4412
5.62E-4,-0.4414
5.62E-4,-0.5134
5.62E-4,-0.5134
5.62E-4,-0.5134
5.62E-4,-0.5134
5.621E-4,-0.5134
5.621E-4,-0.5134
5.622E-4,-0.5134
5.623E-4,-0.5134
5.626E-4,-0.5134
5.63E-4,-0.5134
5.63E-4,-0.5134
5.63E-4,-0.5134
5.63E-4,-0.5134
5.631E-4,-0.5134
5.631E-4,-0.5134
5.631E-4,-0.5135
5.633E-4,-0.5135
5.635E-4,-0.5136
5.637E-4,-0.5137
5.64E-4,-0.5139
5.64E-4,-0.5779
5.64E-4,-0.5779
5.64E-4,-0.5779
5.64E-4,-0.5779
5.64E-4,-0.5779
5.64E-4,-0.5779
5.64E-4,-0.5779
5.64E-4,-0.5779
5.64E-4,-0.5779
5.641E-4,-0.5779
5.641E-4,-0.5779
5.641E-4,-0.5779
5.642E-4,-0.5779
5.644E-4,-0.5779
5.647E-4,-0.5779
5.65E-4,-0.5779
5.65E-4,-0.5779
5.65E-4,-0.5779
5.65E-4,-0.5779
5.651E-4,-0.5779
5.651E-4,-0.5779
5.652E-4,-0.5779
5.653E-4,-0.5780
5.655E-4,-0.5781
5.66E-4,-0.5783
5.66E-4,-0.6332
5.66E-4,-0.6332
5.66E-4,-0.6332
5.66E-4,-0.6332
5.661E-4,-0.6332
5.661E-4,-0.6332
5.662E-4,-0.6332
5.664E-4,-0.6332
5.667E-4,-0.6332
5.67E-4,-0.6332
5.67E-4,-0.6332
5.67E-4,-0.6333
5.671E-4,-0.6333
5.671E-4,-0.6333
5.671E-4,-0.6333
5.672E-4,-0.6333
5.674E-4,-0.6333
5.677E-4,-0.6335
5.68E-4,-0.6336
5.68E-4,-0.6786
5.68E-4,-0.6786
5.68E-4,-0.6786
5.68E-4,-0.6786
5.681E-4,-0.6786
5.681E-4,-0.6786
5.682E-4,-0.6786
5.684E-4,-0.6786
5.687E-4,-0.6786
5.69E-4,-0.6786
5.69E-4,-0.6786
5.69E-4,-0.6786
5.691E-4,-0.6786
5.691E-4,-0.6786
5.691E-4,-0.6786
5.692E-4,-0.6787
5.694E-4,-0.6787
5.697E-4,-0.6788
5.7E-4,-0.6789
5.7E-4,-0.7133
5.7E-4,-0.7133
5.7E-4,-0.7133
5.701E-4,-0.7133
5.701E-4,-0.7133
5.701E-4,-0.7133
5.702E-4,-0.7133
5.705E-4,-0.7133
5.707E-4,-0.7133
5.71E-4,-0.7133
5.71E-4,-0.7133
5.71E-4,-0.7133
5.711E-4,-0.7133
5.711E-4,-0.7133
5.711E-4,-0.7133
5.712E-4,-0.7133
5.714E-4,-0.7134
5.717E-4,-0.7134
5.72E-4,-0.7135
5.72E-4,-0.7367
5.72E-4,-0.7367
5.721E-4,-0.7367
5.721E-4,-0.7367
5.721E-4,-0.7367
5.722E-4,-0.7367
5.723E-4,-0.7367
5.727E-4,-0.7367
5.73E-4,-0.7367
5.73E-4,-0.7367
5.73E-4,-0.7367
5.731E-4,-0.7367
5.731E-4,-0.7367
5.732E-4,-0.7367
5.733E-4,-0.7367
5.736E-4,-0.7368
5.74E-4,-0.7368
5.74E-4,-0.7485
5.74E-4,-0.7485
5.741E-4,-0.7485
5.741E-4,-0.7485
5.741E-4,-0.7485
5.742E-4,-0.7485
5.744E-4,-0.7485
5.747E-4,-0.7485
5.75E-4,-0.7485
5.75E-4,-0.7485
5.75E-4,-0.7485
5.751E-4,-0.7485
5.751E-4,-0.7485
5.752E-4,-0.7485
5.755E-4,-0.7485
5.757E-4,-0.7485
5.76E-4,-0.7485
5.76E-4,-0.7485
5.76E-4,-0.7485
5.761E-4,-0.7485
5.762E-4,-0.7485
5.763E-4,-0.7485
5.766E-4,-0.7485
5.770E-4,-0.7485
5.770E-4,-0.7485
5.770E-4,-0.7485
5.771E-4,-0.7485
5.771E-4,-0.7485
5.772E-4,-0.7485
5.773E-4,-0.7485
5.777E-4,-0.7485
5.78E-4,-0.7484
5.78E-4,-0.7367
5.78E-4,-0.7367
5.781E-4,-0.7367
5.781E-4,-0.7367
5.781E-4,-0.7367
5.782E-4,-0.7367
5.784E-4,-0.7367
5.787E-4,-0.7367
5.79E-4,-0.7367
5.79E-4,-0.7367
5.79E-4,-0.7367
5.791E-4,-0.7367
5.791E-4,-0.7367
5.792E-4,-0.7367
5.793E-4,-0.7367
5.795E-4,-0.7366
5.798E-4,-0.7366
5.8E-4,-0.7366
5.8E-4,-0.7133
5.8E-4,-0.7133
5.801E-4,-0.7133
5.801E-4,-0.7133
5.801E-4,-0.7133
5.802E-4,-0.7133
5.803E-4,-0.7133
5.807E-4,-0.7133
5.810E-4,-0.7133
5.810E-4,-0.7133
5.810E-4,-0.7133
5.811E-4,-0.7133
5.811E-4,-0.7133
5.811E-4,-0.7133
5.812E-4,-0.7133
5.814E-4,-0.7132
5.817E-4,-0.7131
5.82E-4,-0.7130
5.82E-4,-0.6786
5.82E-4,-0.6786
5.82E-4,-0.6786
5.821E-4,-0.6786
5.821E-4,-0.6786
5.821E-4,-0.6786
5.822E-4,-0.6786
5.825E-4,-0.6786
5.827E-4,-0.6786
5.83E-4,-0.6786
5.83E-4,-0.6786
5.83E-4,-0.6786
5.831E-4,-0.6786
5.831E-4,-0.6786
5.831E-4,-0.6786
5.832E-4,-0.6786
5.834E-4,-0.6785
5.837E-4,-0.6784
5.84E-4,-0.6783
5.84E-4,-0.6332
5.84E-4,-0.6332
5.84E-4,-0.6332
5.84E-4,-0.6332
5.841E-4,-0.6332
5.841E-4,-0.6332
5.842E-4,-0.6332
5.844E-4,-0.6332
5.847E-4,-0.6332
5.850E-4,-0.6332
5.850E-4,-0.6332
5.850E-4,-0.6332
5.851E-4,-0.6332
5.851E-4,-0.6332
5.851E-4,-0.6332
5.852E-4,-0.6332
5.853E-4,-0.6332
5.856E-4,-0.6331
5.86E-4,-0.6328
5.86E-4,-0.5779
5.86E-4,-0.5779
5.86E-4,-0.5779
5.86E-4,-0.5779
5.861E-4,-0.5779
5.861E-4,-0.5779
5.862E-4,-0.5779
5.864E-4,-0.5779
5.867E-4,-0.5779
5.87E-4,-0.5779
5.87E-4,-0.5779
5.87E-4,-0.5779
5.87E-4,-0.5779
5.871E-4,-0.5779
5.871E-4,-0.5779
5.872E-4,-0.5778
5.873E-4,-0.5778
5.875E-4,-0.5777
5.878E-4,-0.5776
5.88E-4,-0.5774
5.88E-4,-0.5134
5.88E-4,-0.5134
5.88E-4,-0.5134
5.88E-4,-0.5134
5.88E-4,-0.5134
5.88E-4,-0.5134
5.88E-4,-0.5134
5.88E-4,-0.5134
5.88E-4,-0.5134
5.881E-4,-0.5134
5.881E-4,-0.5134
5.881E-4,-0.5134
5.882E-4,-0.5134
5.884E-4,-0.5134
5.887E-4,-0.5134
5.89E-4,-0.5134
5.89E-4,-0.5134
5.89E-4,-0.5134
5.89E-4,-0.5134
5.891E-4,-0.5134
5.891E-4,-0.5134
5.891E-4,-0.5134
5.893E-4,-0.5133
5.895E-4,-0.5132
5.897E-4,-0.5131
5.9E-4,-0.5129
5.9E-4,-0.4408
5.9E-4,-0.4408
5.9E-4,-0.4408
5.9E-4,-0.4408
5.901E-4,-0.4408
5.901E-4,-0.4408
5.902E-4,-0.4408
5.903E-4,-0.4408
5.906E-4,-0.4408
5.91E-4,-0.4408
5.91E-4,-0.4408
5.91E-4,-0.4408
5.91E-4,-0.4408
5.911E-4,-0.4408
5.911E-4,-0.4408
5.911E-4,-0.4408
5.912E-4,-0.4407
5.915E-4,-0.4406
5.917E-4,-0.4405
5.92E-4,-0.4403
5.92E-4,-0.3613
5.92E-4,-0.3613
5.92E-4,-0.3613
5.92E-4,-0.3613
5.921E-4,-0.3613
5.921E-4,-0.3613
5.922E-4,-0.3613
5.923E-4,-0.3613
5.926E-4,-0.3613
5.93E-4,-0.3613
5.93E-4,-0.3613
5.93E-4,-0.3613
5.93E-4,-0.3613
5.931E-4,-0.3613
5.931E-4,-0.3613
5.931E-4,-0.3613
5.932E-4,-0.3612
5.934E-4,-0.3611
5.937E-4,-0.3609
5.94E-4,-0.3607
5.94E-4,-0.2761
5.94E-4,-0.2761
5.94E-4,-0.2761
5.94E-4,-0.2761
5.94E-4,-0.2761
5.94E-4,-0.2761
5.94E-4,-0.2761
5.94E-4,-0.2761
5.94E-4,-0.2761
5.94E-4,-0.2761
5.94E-4,-0.2761
5.94E-4,-0.2761
5.941E-4,-0.2761
5.941E-4,-0.2761
5.942E-4,-0.2761
5.943E-4,-0.2761
5.946E-4,-0.2761
5.95E-4,-0.2761
5.95E-4,-0.2761
5.95E-4,-0.2761
5.95E-4,-0.2761
5.951E-4,-0.2761
5.951E-4,-0.2761
5.951E-4,-0.2760
5.952E-4,-0.2760
5.954E-4,-0.2759
5.957E-4,-0.2757
5.96E-4,-0.2754
5.96E-4,-0.1865
5.96E-4,-0.1865
5.96E-4,-0.1865
5.96E-4,-0.1865
5.961E-4,-0.1865
5.961E-4,-0.1865
5.962E-4,-0.1865
5.963E-4,-0.1865
5.966E-4,-0.1865
5.97E-4,-0.1865
5.97E-4,-0.1865
5.97E-4,-0.1865
5.97E-4,-0.1865
5.971E-4,-0.1865
5.971E-4,-0.1865
5.971E-4,-0.1865
5.972E-4,-0.1864
5.974E-4,-0.1863
5.977E-4,-0.1861
5.98E-4,-0.1858
5.98E-4,-0.09401
5.98E-4,-0.09401
5.98E-4,-0.09401
5.98E-4,-0.09401
5.981E-4,-0.09401
5.981E-4,-0.09401
5.982E-4,-0.09401
5.983E-4,-0.09401
5.986E-4,-0.09401
5.99E-4,-0.09401
5.99E-4,-0.09400
5.99E-4,-0.09400
5.99E-4,-0.09399
5.991E-4,-0.09399
5.991E-4,-0.09397
5.991E-4,-0.09395
5.992E-4,-0.09390
5.994E-4,-0.09378
5.997E-4,-0.09356
6.0E-4,-0.09331
6.0E-4,-8.813E-6
6.0E-4,-8.812E-6
6.0E-4,-8.812E-6
6.0E-4,-8.812E-6
6.001E-4,-8.812E-6
6.001E-4,-8.812E-6
6.002E-4,-8.812E-6
6.003E-4,-8.812E-6
6.006E-4,-8.812E-6
6.01E-4,-8.811E-6
6.01E-4,-4.055E-6
6.01E-4,1.029E-6
6.01E-4,5.904E-6
6.01E-4,7.607E-6
6.01E-4,9.215E-6
6.011E-4,1.083E-5
6.011E-4,1.203E-5
6.011E-4,1.341E-5
6.011E-4,1.477E-5
6.011E-4,1.749E-5
6.011E-4,2.298E-5
6.011E-4,3.412E-5
6.011E-4,5.707E-5
6.012E-4,1.056E-4
6.014E-4,2.133E-4
6.018E-4,4.709E-4
6.020E-4,6.891E-4
6.020E-4,0.09400
6.020E-4,0.09400
6.020E-4,0.09400
6.020E-4,0.09400
6.021E-4,0.09400
6.021E-4,0.09400
6.022E-4,0.09400
6.023E-4,0.09400
6.026E-4,0.09400
6.03E-4,0.09400
6.03E-4,0.09400
6.03E-4,0.09400
6.03E-4,0.09401
6.031E-4,0.09402
6.031E-4,0.09403
6.031E-4,0.09405
6.032E-4,0.09411
6.034E-4,0.09422
6.037E-4,0.09444
6.04E-4,0.09468
6.04E-4,0.1865
6.04E-4,0.1865
6.04E-4,0.1865
6.04E-4,0.1865
6.041E-4,0.1865
6.041E-4,0.1865
6.042E-4,0.1865
6.043E-4,0.1865
6.046E-4,0.1865
6.05E-4,0.1865
6.05E-4,0.1865
6.05E-4,0.1865
6.05E-4,0.1865
6.051E-4,0.1865
6.051E-4,0.1865
6.051E-4,0.1866
6.052E-4,0.1866
6.054E-4,0.1867
6.057E-4,0.1869
6.060E-4,0.1872
6.060E-4,0.2761
6.060E-4,0.2761
6.060E-4,0.2761
6.060E-4,0.2761
6.061E-4,0.2761
6.061E-4,0.2761
6.062E-4,0.2761
6.063E-4,0.2761
6.066E-4,0.2761
6.07E-4,0.2761
6.07E-4,0.2761
6.07E-4,0.2761
6.07E-4,0.2761
6.071E-4,0.2761
6.071E-4,0.2761
6.071E-4,0.2761
6.072E-4,0.2762
6.074E-4,0.2763
6.077E-4,0.2765
6.08E-4,0.2767
6.08E-4,0.3613
6.08E-4,0.3613
6.08E-4,0.3613
6.08E-4,0.3613
6.08E-4,0.3613
6.08E-4,0.3613
6.08E-4,0.3613
6.08E-4,0.3613
6.08E-4,0.3613
6.08E-4,0.3613
6.08E-4,0.3613
6.08E-4,0.3613
6.081E-4,0.3613
6.081E-4,0.3613
6.082E-4,0.3613
6.083E-4,0.3613
6.086E-4,0.3613
6.09E-4,0.3613
6.09E-4,0.3613
6.09E-4,0.3613
6.09E-4,0.3613
6.091E-4,0.3613
6.091E-4,0.3613
6.091E-4,0.3614
6.092E-4,0.3614
6.094E-4,0.3615
6.097E-4,0.3617
6.100E-4,0.3619
6.100E-4,0.4408
6.100E-4,0.4408
6.100E-4,0.4408
6.100E-4,0.4408
6.101E-4,0.4408
6.101E-4,0.4408
6.102E-4,0.4408
6.103E-4,0.4408
6.106E-4,0.4408
6.11E-4,0.4408
6.11E-4,0.4408
6.11E-4,0.4408
6.11E-4,0.4408
6.111E-4,0.4409
6.111E-4,0.4409
6.111E-4,0.4409
6.113E-4,0.4409
6.115E-4,0.4410
6.117E-4,0.4412
6.12E-4,0.4414
6.12E-4,0.5134
6.12E-4,0.5134
6.12E-4,0.5134
6.12E-4,0.5134
6.121E-4,0.5134
6.121E-4,0.5134
6.122E-4,0.5134
6.123E-4,0.5134
6.126E-4,0.5134
6.13E-4,0.5134
6.13E-4,0.5134
6.13E-4,0.5134
6.13E-4,0.5134
6.131E-4,0.5134
6.131E-4,0.5134
6.131E-4,0.5135
6.133E-4,0.5135
6.135E-4,0.5136
6.137E-4,0.5137
6.140E-4,0.5139
6.140E-4,0.5779
6.140E-4,0.5779
6.140E-4,0.5779
6.140E-4,0.5779
6.140E-4,0.5779
6.140E-4,0.5779
6.140E-4,0.5779
6.140E-4,0.5779
6.140E-4,0.5779
6.141E-4,0.5779
6.141E-4,0.5779
6.141E-4,0.5779
6.142E-4,0.5779
6.144E-4,0.5779
6.147E-4,0.5779
6.15E-4,0.5779
6.15E-4,0.5779
6.15E-4,0.5779
6.15E-4,0.5779
6.151E-4,0.5779
6.151E-4,0.5779
6.152E-4,0.5779
6.153E-4,0.5780
6.155E-4,0.5781
6.16E-4,0.5783
6.16E-4,0.6332
6.16E-4,0.6332
6.16E-4,0.6332
6.16E-4,0.6332
6.161E-4,0.6332
6.161E-4,0.6332
6.162E-4,0.6332
6.164E-4,0.6332
6.167E-4,0.6332
6.17E-4,0.6332
6.17E-4,0.6332
6.17E-4,0.6333
6.171E-4,0.6333
6.171E-4,0.6333
6.171E-4,0.6333
6.172E-4,0.6333
6.174E-4,0.6333
6.177E-4,0.6335
6.18E-4,0.6336
6.18E-4,0.6786
6.18E-4,0.6786
6.18E-4,0.6786
6.18E-4,0.6786
6.181E-4,0.6786
6.181E-4,0.6786
6.182E-4,0.6786
6.184E-4,0.6786
6.187E-4,0.6786
6.19E-4,0.6786
6.19E-4,0.6786
6.19E-4,0.6786
6.191E-4,0.6786
6.191E-4,0.6786
6.191E-4,0.6786
6.192E-4,0.6787
6.194E-4,0.6787
6.197E-4,0.6788
6.2E-4,0.6789
6.2E-4,0.7133
6.2E-4,0.7133
6.2E-4,0.7133
6.201E-4,0.7133
6.201E-4,0.7133
6.201E-4,0.7133
6.202E-4,0.7133
6.205E-4,0.7133
6.207E-4,0.7133
6.21E-4,0.7133
6.21E-4,0.7133
6.21E-4,0.7133
6.211E-4,0.7133
6.211E-4,0.7133
6.211E-4,0.7133
6.212E-4,0.7133
6.214E-4,0.7134
6.217E-4,0.7134
6.22E-4,0.7135
6.22E-4,0.7367
6.22E-4,0.7367
6.221E-4,0.7367
6.221E-4,0.7367
6.221E-4,0.7367
6.222E-4,0.7367
6.223E-4,0.7367
6.227E-4,0.7367
6.23E-4,0.7367
6.23E-4,0.7367
6.23E-4,0.7367
6.231E-4,0.7367
6.231E-4,0.7367
6.232E-4,0.7367
6.233E-4,0.7367
6.236E-4,0.7368
6.24E-4,0.7368
6.24E-4,0.7485
6.24E-4,0.7485
6.241E-4,0.7485
6.241E-4,0.7485
6.241E-4,0.7485
6.242E-4,0.7485
6.244E-4,0.7485
6.247E-4,0.7485
6.25E-4,0.7485
6.25E-4,0.7485
6.25E-4,0.7485
6.251E-4,0.7485
6.251E-4,0.7485
6.252E-4,0.7485
6.255E-4,0.7485
6.257E-4,0.7485
6.26E-4,0.7485
6.26E-4,0.7485
6.26E-4,0.7485
6.261E-4,0.7485
6.261E-4,0.7485
6.263E-4,0.7485
6.266E-4,0.7485
6.270E-4,0.7485
6.270E-4,0.7485
6.270E-4,0.7485
6.271E-4,0.7485
6.271E-4,0.7485
6.272E-4,0.7485
6.273E-4,0.7485
6.277E-4,0.7485
6.28E-4,0.7484
6.28E-4,0.7367
6.28E-4,0.7367
6.281E-4,0.7367
6.281E-4,0.7367
6.281E-4,0.7367
6.282E-4,0.7367
6.284E-4,0.7367
6.287E-4,0.7367
6.29E-4,0.7367
6.29E-4,0.7367
6.29E-4,0.7367
6.291E-4,0.7367
6.291E-4,0.7367
6.292E-4,0.7367
6.293E-4,0.7367
6.295E-4,0.7366
6.298E-4,0.7366
6.3E-4,0.7366
6.3E-4,0.7133
6.3E-4,0.7133
6.301E-4,0.7133
6.301E-4,0.7133
6.301E-4,0.7133
6.302E-4,0.7133
6.303E-4,0.7133
6.307E-4,0.7133
6.310E-4,0.7133
6.310E-4,0.7133
6.310E-4,0.7133
6.311E-4,0.7133
6.311E-4,0.7133
6.311E-4,0.7133
6.312E-4,0.7133
6.314E-4,0.7132
6.317E-4,0.7131
6.32E-4,0.7130
6.32E-4,0.6786
6.32E-4,0.6786
6.32E-4,0.6786
6.321E-4,0.6786
6.321E-4,0.6786
6.321E-4,0.6786
6.322E-4,0.6786
6.325E-4,0.6786
6.327E-4,0.6786
6.33E-4,0.6786
6.33E-4,0.6786
6.33E-4,0.6786
6.331E-4,0.6786
6.331E-4,0.6786
6.331E-4,0.6786
6.332E-4,0.6786
6.334E-4,0.6785
6.337E-4,0.6784
6.34E-4,0.6783
6.34E-4,0.6332
6.34E-4,0.6332
6.34E-4,0.6332
6.34E-4,0.6332
6.341E-4,0.6332
6.341E-4,0.6332
6.342E-4,0.6332
6.344E-4,0.6332
6.347E-4,0.6332
6.350E-4,0.6332
6.350E-4,0.6332
6.350E-4,0.6332
6.351E-4,0.6332
6.351E-4,0.6332
6.351E-4,0.6332
6.352E-4,0.6332
6.353E-4,0.6332
6.356E-4,0.6331
6.36E-4,0.6328
6.36E-4,0.5779
6.36E-4,0.5779
6.36E-4,0.5779
6.36E-4,0.5779
6.361E-4,0.5779
6.361E-4,0.5779
6.362E-4,0.5779
6.364E-4,0.5779
6.367E-4,0.5779
6.37E-4,0.5779
6.37E-4,0.5779
6.37E-4,0.5779
6.37E-4,0.5779
6.371E-4,0.5779
6.371E-4,0.5779
6.372E-4,0.5778
6.373E-4,0.5778
6.375E-4,0.5777
6.378E-4,0.5776
6.38E-4,0.5774
6.38E-4,0.5134
6.38E-4,0.5134
6.38E-4,0.5134
6.38E-4,0.5134
6.38E-4,0.5134
6.38E-4,0.5134
6.38E-4,0.5134
6.38E-4,0.5134
6.38E-4,0.5134
6.381E-4,0.5134
6.381E-4,0.5134
6.381E-4,0.5134
6.382E-4,0.5134
6.384E-4,0.5134
6.387E-4,0.5134
6.390E-4,0.5134
6.390E-4,0.5134
6.390E-4,0.5134
6.390E-4,0.5134
6.391E-4,0.5134
6.391E-4,0.5134
6.391E-4,0.5134
6.393E-4,0.5133
6.395E-4,0.5132
6.397E-4,0.5131
6.4E-4,0.5129
6.4E-4,0.4408
6.4E-4,0.4408
6.4E-4,0.4408
6.4E-4,0.4408
6.401E-4,0.4408
6.401E-4,0.4408
6.402E-4,0.4408
6.403E-4,0.4408
6.406E-4,0.4408
6.41E-4,0.4408
6.41E-4,0.4408
6.41E-4,0.4408
6.41E-4,0.4408
6.411E-4,0.4408
6.411E-4,0.4408
6.411E-4,0.4408
6.412E-4,0.4407
6.415E-4,0.4406
6.417E-4,0.4405
6.42E-4,0.4403
6.42E-4,0.3613
6.42E-4,0.3613
6.42E-4,0.3613
6.42E-4,0.3613
6.421E-4,0.3613
6.421E-4,0.3613
6.422E-4,0.3613
6.423E-4,0.3613
6.426E-4,0.3613
6.43E-4,0.3613
6.43E-4,0.3613
6.43E-4,0.3613
6.43E-4,0.3613
6.431E-4,0.3613
6.431E-4,0.3613
6.431E-4,0.3613
6.432E-4,0.3612
6.434E-4,0.3611
6.437E-4,0.3609
6.44E-4,0.3607
6.44E-4,0.2761
6.44E-4,0.2761
6.44E-4,0.2761
6.44E-4,0.2761
6.44E-4,0.2761
6.44E-4,0.2761
6.44E-4,0.2761
6.44E-4,0.2761
6.44E-4,0.2761
6.44E-4,0.2761
6.44E-4,0.2761
6.44E-4,0.2761
6.441E-4,0.2761
6.441E-4,0.2761
6.442E-4,0.2761
6.443E-4,0.2761
6.446E-4,0.2761
6.45E-4,0.2761
6.45E-4,0.2761
6.45E-4,0.2761
6.45E-4,0.2761
6.451E-4,0.2761
6.451E-4,0.2761
6.451E-4,0.2760
6.452E-4,0.2760
6.454E-4,0.2759
6.457E-4,0.2757
6.46E-4,0.2754
6.46E-4,0.1865
6.46E-4,0.1865
6.46E-4,0.1865
6.46E-4,0.1865
6.461E-4,0.1865
6.461E-4,0.1865
6.462E-4,0.1865
6.463E-4,0.1865
6.466E-4,0.1865
6.47E-4,0.1865
6.47E-4,0.1865
6.47E-4,0.1865
6.47E-4,0.1865
6.471E-4,0.1865
6.471E-4,0.1865
6.471E-4,0.1865
6.472E-4,0.1864
6.474E-4,0.1863
6.477E-4,0.1861
6.48E-4,0.1858
6.48E-4,0.09401
6.48E-4,0.09401
6.48E-4,0.09401
6.48E-4,0.09401
6.481E-4,0.09401
6.481E-4,0.09401
6.482E-4,0.09401
6.483E-4,0.09401
6.486E-4,0.09401
6.49E-4,0.09401
6.49E-4,0.09400
6.49E-4,0.09400
6.49E-4,0.09399
6.491E-4,0.09399
6.491E-4,0.09397
6.491E-4,0.09395
6.492E-4,0.09390
6.494E-4,0.09378
6.497E-4,0.09356
6.5E-4,0.09331
6.5E-4,8.813E-6
6.5E-4,8.812E-6
6.5E-4,8.812E-6
6.5E-4,8.812E-6
6.501E-4,8.812E-6
6.501E-4,8.812E-6
6.502E-4,8.812E-6
6.503E-4,8.812E-6
6.506E-4,8.812E-6
6.51E-4,8.811E-6
6.51E-4,4.055E-6
6.51E-4,-1.029E-6
6.51E-4,-5.904E-6
6.51E-4,-7.607E-6
6.51E-4,-9.215E-6
6.511E-4,-1.083E-5
6.511E-4,-1.203E-5
6.511E-4,-1.341E-5
6.511E-4,-1.477E-5
6.511E-4,-1.749E-5
6.511E-4,-2.298E-5
6.511E-4,-3.412E-5
6.511E-4,-5.707E-5
6.512E-4,-1.056E-4
6.514E-4,-2.133E-4
6.518E-4,-4.709E-4
6.520E-4,-6.891E-4
6.520E-4,-0.09400
6.520E-4,-0.09400
6.520E-4,-0.09400
6.520E-4,-0.09400
6.521E-4,-0.09400
6.521E-4,-0.09400
6.522E-4,-0.09400
6.523E-4,-0.09400
6.526E-4,-0.09400
6.53E-4,-0.09400
6.53E-4,-0.09400
6.53E-4,-0.09400
6.53E-4,-0.09401
6.531E-4,-0.09402
6.531E-4,-0.09403
6.531E-4,-0.09405
6.532E-4,-0.09411
6.534E-4,-0.09422
6.537E-4,-0.09444
6.54E-4,-0.09468
6.54E-4,-0.1865
6.54E-4,-0.1865
6.54E-4,-0.1865
6.54E-4,-0.1865
6.541E-4,-0.1865
6.541E-4,-0.1865
6.542E-4,-0.1865
6.543E-4,-0.1865
6.546E-4,-0.1865
6.55E-4,-0.1865
6.55E-4,-0.1865
6.55E-4,-0.1865
6.55E-4,-0.1865
6.551E-4,-0.1865
6.551E-4,-0.1865
6.551E-4,-0.1866
6.552E-4,-0.1866
6.554E-4,-0.1867
6.557E-4,-0.1869
6.560E-4,-0.1872
6.560E-4,-0.2761
6.560E-4,-0.2761
6.560E-4,-0.2761
6.560E-4,-0.2761
6.561E-4,-0.2761
6.561E-4,-0.2761
6.562E-4,-0.2761
6.563E-4,-0.2761
6.566E-4,-0.2761
6.57E-4,-0.2761
6.57E-4,-0.2761
6.57E-4,-0.2761
6.57E-4,-0.2761
6.571E-4,-0.2761
6.571E-4,-0.2761
6.571E-4,-0.2761
6.572E-4,-0.2762
6.574E-4,-0.2763
6.577E-4,-0.2765
6.58E-4,-0.2767
6.58E-4,-0.3613
6.58E-4,-0.3613
6.58E-4,-0.3613
6.58E-4,-0.3613
6.58E-4,-0.3613
6.58E-4,-0.3613
6.58E-4,-0.3613
6.58E-4,-0.3613
6.58E-4,-0.3613
6.58E-4,-0.3613
6.58E-4,-0.3613
6.58E-4,-0.3613
6.581E-4,-0.3613
6.581E-4,-0.3613
6.582E-4,-0.3613
6.583E-4,-0.3613
6.586E-4,-0.3613
6.59E-4,-0.3613
6.59E-4,-0.3613
6.59E-4,-0.3613
6.59E-4,-0.3613
6.591E-4,-0.3613
6.591E-4,-0.3613
6.591E-4,-0.3614
6.592E-4,-0.3614
6.594E-4,-0.3615
6.597E-4,-0.3617
6.600E-4,-0.3619
6.600E-4,-0.4408
6.600E-4,-0.4408
6.600E-4,-0.4408
6.600E-4,-0.4408
6.601E-4,-0.4408
6.601E-4,-0.4408
6.602E-4,-0.4408
6.603E-4,-0.4408
6.606E-4,-0.4408
6.61E-4,-0.4408
6.61E-4,-0.4408
6.61E-4,-0.4408
6.61E-4,-0.4408
6.611E-4,-0.4409
6.611E-4,-0.4409
6.611E-4,-0.4409
6.613E-4,-0.4409
6.615E-4,-0.4410
6.617E-4,-0.4412
6.62E-4,-0.4414
6.62E-4,-0.5134
6.62E-4,-0.5134
6.62E-4,-0.5134
6.62E-4,-0.5134
6.621E-4,-0.5134
6.621E-4,-0.5134
6.622E-4,-0.5134
6.623E-4,-0.5134
6.626E-4,-0.5134
6.63E-4,-0.5134
6.63E-4,-0.5134
6.63E-4,-0.5134
6.63E-4,-0.5134
6.631E-4,-0.5134
6.631E-4,-0.5134
6.631E-4,-0.5135
6.633E-4,-0.5135
6.635E-4,-0.5136
6.637E-4,-0.5137
6.640E-4,-0.5139
6.640E-4,-0.5779
6.640E-4,-0.5779
6.640E-4,-0.5779
6.640E-4,-0.5779
6.640E-4,-0.5779
6.640E-4,-0.5779
6.640E-4,-0.5779
6.640E-4,-0.5779
6.640E-4,-0.5779
6.641E-4,-0.5779
6.641E-4,-0.5779
6.641E-4,-0.5779
6.642E-4,-0.5779
6.644E-4,-0.5779
6.647E-4,-0.5779
6.65E-4,-0.5779
6.65E-4,-0.5779
6.65E-4,-0.5779
6.65E-4,-0.5779
6.651E-4,-0.5779
6.651E-4,-0.5779
6.652E-4,-0.5779
6.653E-4,-0.5780
6.655E-4,-0.5781
6.66E-4,-0.5783
6.66E-4,-0.6332
6.66E-4,-0.6332
6.66E-4,-0.6332
6.66E-4,-0.6332
6.661E-4,-0.6332
6.661E-4,-0.6332
6.662E-4,-0.6332
6.664E-4,-0.6332
6.667E-4,-0.6332
6.67E-4,-0.6332
6.67E-4,-0.6332
6.67E-4,-0.6333
6.671E-4,-0.6333
6.671E-4,-0.6333
6.671E-4,-0.6333
6.672E-4,-0.6333
6.674E-4,-0.6333
6.677E-4,-0.6335
6.68E-4,-0.6336
6.68E-4,-0.6786
6.68E-4,-0.6786
6.68E-4,-0.6786
6.68E-4,-0.6786
6.681E-4,-0.6786
6.681E-4,-0.6786
6.682E-4,-0.6786
6.684E-4,-0.6786
6.687E-4,-0.6786
6.69E-4,-0.6786
6.69E-4,-0.6786
6.69E-4,-0.6786
6.691E-4,-0.6786
6.691E-4,-0.6786
6.691E-4,-0.6786
6.692E-4,-0.6787
6.694E-4,-0.6787
6.697E-4,-0.6788
6.7E-4,-0.6789
6.7E-4,-0.7133
6.7E-4,-0.7133
6.7E-4,-0.7133
6.701E-4,-0.7133
6.701E-4,-0.7133
6.701E-4,-0.7133
6.702E-4,-0.7133
6.705E-4,-0.7133
6.707E-4,-0.7133
6.71E-4,-0.7133
6.71E-4,-0.7133
6.71E-4,-0.7133
6.711E-4,-0.7133
6.711E-4,-0.7133
6.711E-4,-0.7133
6.712E-4,-0.7133
6.714E-4,-0.7134
6.717E-4,-0.7134
6.72E-4,-0.7135
6.72E-4,-0.7367
6.72E-4,-0.7367
6.721E-4,-0.7367
6.721E-4,-0.7367
6.721E-4,-0.7367
6.722E-4,-0.7367
6.723E-4,-0.7367
6.727E-4,-0.7367
6.73E-4,-0.7367
6.73E-4,-0.7367
6.73E-4,-0.7367
6.731E-4,-0.7367
6.731E-4,-0.7367
6.732E-4,-0.7367
6.733E-4,-0.7367
6.736E-4,-0.7368
6.74E-4,-0.7368
6.74E-4,-0.7485
6.74E-4,-0.7485
6.741E-4,-0.7485
6.741E-4,-0.7485
6.741E-4,-0.7485
6.742E-4,-0.7485
6.744E-4,-0.7485
6.747E-4,-0.7485
6.75E-4,-0.7485
6.75E-4,-0.7485
6.75E-4,-0.7485
6.751E-4,-0.7485
6.751E-4,-0.7485
6.752E-4,-0.7485
6.755E-4,-0.7485
6.757E-4,-0.7485
6.76E-4,-0.7485
6.76E-4,-0.7485
6.76E-4,-0.7485
6.761E-4,-0.7485
6.761E-4,-0.7485
6.763E-4,-0.7485
6.766E-4,-0.7485
6.770E-4,-0.7485
6.770E-4,-0.7485
6.770E-4,-0.7485
6.771E-4,-0.7485
6.771E-4,-0.7485
6.772E-4,-0.7485
6.773E-4,-0.7485
6.777E-4,-0.7485
6.78E-4,-0.7484
6.78E-4,-0.7367
6.78E-4,-0.7367
6.781E-4,-0.7367
6.781E-4,-0.7367
6.781E-4,-0.7367
6.782E-4,-0.7367
6.784E-4,-0.7367
6.787E-4,-0.7367
6.79E-4,-0.7367
6.79E-4,-0.7367
6.79E-4,-0.7367
6.791E-4,-0.7367
6.791E-4,-0.7367
6.792E-4,-0.7367
6.793E-4,-0.7367
6.795E-4,-0.7366
6.798E-4,-0.7366
6.8E-4,-0.7366
6.8E-4,-0.7133
6.8E-4,-0.7133
6.801E-4,-0.7133
6.801E-4,-0.7133
6.801E-4,-0.7133
6.802E-4,-0.7133
6.803E-4,-0.7133
6.807E-4,-0.7133
6.810E-4,-0.7133
6.810E-4,-0.7133
6.810E-4,-0.7133
6.811E-4,-0.7133
6.811E-4,-0.7133
6.811E-4,-0.7133
6.812E-4,-0.7133
6.814E-4,-0.7132
6.817E-4,-0.7131
6.82E-4,-0.7130
6.82E-4,-0.6786
6.82E-4,-0.6786
6.82E-4,-0.6786
6.821E-4,-0.6786
6.821E-4,-0.6786
6.821E-4,-0.6786
6.822E-4,-0.6786
6.825E-4,-0.6786
6.827E-4,-0.6786
6.83E-4,-0.6786
6.83E-4,-0.6786
6.83E-4,-0.6786
6.831E-4,-0.6786
6.831E-4,-0.6786
6.831E-4,-0.6786
6.832E-4,-0.6786
6.834E-4,-0.6785
6.837E-4,-0.6784
6.84E-4,-0.6783
6.84E-4,-0.6332
6.84E-4,-0.6332
6.84E-4,-0.6332
6.84E-4,-0.6332
6.841E-4,-0.6332
6.841E-4,-0.6332
6.842E-4,-0.6332
6.844E-4,-0.6332
6.847E-4,-0.6332
6.850E-4,-0.6332
6.850E-4,-0.6332
6.850E-4,-0.6332
6.851E-4,-0.6332
6.851E-4,-0.6332
6.851E-4,-0.6332
6.852E-4,-0.6332
6.853E-4,-0.6332
6.856E-4,-0.6331
6.86E-4,-0.6328
6.86E-4,-0.5779
6.86E-4,-0.5779
6.86E-4,-0.5779
6.86E-4,-0.5779
6.861E-4,-0.5779
6.861E-4,-0.5779
6.862E-4,-0.5779
6.864E-4,-0.5779
6.867E-4,-0.5779
6.87E-4,-0.5779
6.87E-4,-0.5779
6.87E-4,-0.5779
6.87E-4,-0.5779
6.871E-4,-0.5779
6.871E-4,-0.5779
6.872E-4,-0.5778
6.873E-4,-0.5778
6.875E-4,-0.5777
6.878E-4,-0.5776
6.88E-4,-0.5774
6.88E-4,-0.5134
6.88E-4,-0.5134
6.88E-4,-0.5134
6.88E-4,-0.5134
6.88E-4,-0.5134
6.88E-4,-0.5134
6.88E-4,-0.5134
6.88E-4,-0.5134
6.88E-4,-0.5134
6.881E-4,-0.5134
6.881E-4,-0.5134
6.881E-4,-0.5134
6.882E-4,-0.5134
6.884E-4,-0.5134
6.887E-4,-0.5134
6.890E-4,-0.5134
6.890E-4,-0.5134
6.890E-4,-0.5134
6.890E-4,-0.5134
6.891E-4,-0.5134
6.891E-4,-0.5134
6.891E-4,-0.5134
6.893E-4,-0.5133
6.895E-4,-0.5132
6.897E-4,-0.5131
6.9E-4,-0.5129
6.9E-4,-0.4408
6.9E-4,-0.4408
6.9E-4,-0.4408
6.9E-4,-0.4408
6.901E-4,-0.4408
6.901E-4,-0.4408
6.902E-4,-0.4408
6.903E-4,-0.4408
6.906E-4,-0.4408
6.91E-4,-0.4408
6.91E-4,-0.4408
6.91E-4,-0.4408
6.91E-4,-0.4408
6.911E-4,-0.4408
6.911E-4,-0.4408
6.911E-4,-0.4408
6.912E-4,-0.4407
6.915E-4,-0.4406
6.917E-4,-0.4405
6.92E-4,-0.4403
6.92E-4,-0.3613
6.92E-4,-0.3613
6.92E-4,-0.3613
6.92E-4,-0.3613
6.921E-4,-0.3613
6.921E-4,-0.3613
6.922E-4,-0.3613
6.923E-4,-0.3613
6.926E-4,-0.3613
6.93E-4,-0.3613
6.93E-4,-0.3613
6.93E-4,-0.3613
6.93E-4,-0.3613
6.931E-4,-0.3613
6.931E-4,-0.3613
6.931E-4,-0.3613
6.932E-4,-0.3612
6.934E-4,-0.3611
6.937E-4,-0.3609
6.94E-4,-0.3607
6.94E-4,-0.2761
6.94E-4,-0.2761
6.94E-4,-0.2761
6.94E-4,-0.2761
6.94E-4,-0.2761
6.94E-4,-0.2761
6.94E-4,-0.2761
6.94E-4,-0.2761
6.94E-4,-0.2761
6.94E-4,-0.2761
6.94E-4,-0.2761
6.94E-4,-0.2761
6.941E-4,-0.2761
6.941E-4,-0.2761
6.942E-4,-0.2761
6.943E-4,-0.2761
6.946E-4,-0.2761
6.95E-4,-0.2761
6.95E-4,-0.2761
6.95E-4,-0.2761
6.95E-4,-0.2761
6.951E-4,-0.2761
6.951E-4,-0.2761
6.951E-4,-0.2760
6.952E-4,-0.2760
6.954E-4,-0.2759
6.957E-4,-0.2757
6.96E-4,-0.2754
6.96E-4,-0.1865
6.96E-4,-0.1865
6.96E-4,-0.1865
6.96E-4,-0.1865
6.961E-4,-0.1865
6.961E-4,-0.1865
6.962E-4,-0.1865
6.963E-4,-0.1865
6.966E-4,-0.1865
6.97E-4,-0.1865
6.97E-4,-0.1865
6.97E-4,-0.1865
6.97E-4,-0.1865
6.971E-4,-0.1865
6.971E-4,-0.1865
6.971E-4,-0.1865
6.972E-4,-0.1864
6.974E-4,-0.1863
6.977E-4,-0.1861
6.98E-4,-0.1858
6.98E-4,-0.09401
6.98E-4,-0.09401
6.98E-4,-0.09401
6.98E-4,-0.09401
6.981E-4,-0.09401
6.981E-4,-0.09401
6.982E-4,-0.09401
6.983E-4,-0.09401
6.986E-4,-0.09401
6.99E-4,-0.09401
6.99E-4,-0.09400
6.99E-4,-0.09400
6.99E-4,-0.09399
6.991E-4,-0.09399
6.991E-4,-0.09397
6.991E-4,-0.09395
6.992E-4,-0.09390
6.994E-4,-0.09378
6.997E-4,-0.09356
7.0E-4,-0.09331
7.0E-4,-8.813E-6
7.0E-4,-8.812E-6
7.0E-4,-8.812E-6
7.0E-4,-8.812E-6
7.001E-4,-8.812E-6
7.001E-4,-8.812E-6
7.002E-4,-8.812E-6
7.003E-4,-8.812E-6
7.006E-4,-8.812E-6
7.01E-4,-8.811E-6
7.01E-4,-4.055E-6
7.01E-4,1.029E-6
7.01E-4,5.904E-6
7.01E-4,7.607E-6
7.01E-4,9.215E-6
7.011E-4,1.083E-5
7.011E-4,1.203E-5
7.011E-4,1.341E-5
7.011E-4,1.477E-5
7.011E-4,1.749E-5
7.011E-4,2.298E-5
7.011E-4,3.412E-5
7.011E-4,5.707E-5
7.012E-4,1.056E-4
7.014E-4,2.133E-4
7.018E-4,4.709E-4
7.020E-4,6.891E-4
7.020E-4,0.09400
7.020E-4,0.09400
7.020E-4,0.09400
7.020E-4,0.09400
7.021E-4,0.09400
7.021E-4,0.09400
7.022E-4,0.09400
7.023E-4,0.09400
7.026E-4,0.09400
7.03E-4,0.09400
7.03E-4,0.09400
7.03E-4,0.09400
7.03E-4,0.09401
7.031E-4,0.09402
7.031E-4,0.09403
7.031E-4,0.09405
7.032E-4,0.09411
7.034E-4,0.09422
7.037E-4,0.09444
7.04E-4,0.09468
7.04E-4,0.1865
7.04E-4,0.1865
7.04E-4,0.1865
7.04E-4,0.1865
7.041E-4,0.1865
7.041E-4,0.1865
7.042E-4,0.1865
7.043E-4,0.1865
7.046E-4,0.1865
7.05E-4,0.1865
7.05E-4,0.1865
7.05E-4,0.1865
7.05E-4,0.1865
7.051E-4,0.1865
7.051E-4,0.1865
7.051E-4,0.1866
7.052E-4,0.1866
7.054E-4,0.1867
7.057E-4,0.1869
7.060E-4,0.1872
7.060E-4,0.2761
7.060E-4,0.2761
7.060E-4,0.2761
7.060E-4,0.2761
7.061E-4,0.2761
7.061E-4,0.2761
7.062E-4,0.2761
7.063E-4,0.2761
7.066E-4,0.2761
7.07E-4,0.2761
7.07E-4,0.2761
7.07E-4,0.2761
7.07E-4,0.2761
7.071E-4,0.2761
7.071E-4,0.2761
7.071E-4,0.2761
7.072E-4,0.2762
7.074E-4,0.2763
7.077E-4,0.2765
7.08E-4,0.2767
7.08E-4,0.3613
7.08E-4,0.3613
7.08E-4,0.3613
7.08E-4,0.3613
7.08E-4,0.3613
7.08E-4,0.3613
7.08E-4,0.3613
7.08E-4,0.3613
7.08E-4,0.3613
7.08E-4,0.3613
7.08E-4,0.3613
7.08E-4,0.3613
7.081E-4,0.3613
7.081E-4,0.3613
7.082E-4,0.3613
7.083E-4,0.3613
7.086E-4,0.3613
7.09E-4,0.3613
7.09E-4,0.3613
7.09E-4,0.3613
7.09E-4,0.3613
7.091E-4,0.3613
7.091E-4,0.3613
7.091E-4,0.3614
7.092E-4,0.3614
7.094E-4,0.3615
7.097E-4,0.3617
7.100E-4,0.3619
7.100E-4,0.4408
7.100E-4,0.4408
7.100E-4,0.4408
7.100E-4,0.4408
7.101E-4,0.4408
7.101E-4,0.4408
7.102E-4,0.4408
7.103E-4,0.4408
7.106E-4,0.4408
7.11E-4,0.4408
7.11E-4,0.4408
7.11E-4,0.4408
7.11E-4,0.4408
7.111E-4,0.4409
7.111E-4,0.4409
7.111E-4,0.4409
7.113E-4,0.4409
7.115E-4,0.4410
7.117E-4,0.4412
7.12E-4,0.4414
7.12E-4,0.5134
7.12E-4,0.5134
7.12E-4,0.5134
7.12E-4,0.5134
7.121E-4,0.5134
7.121E-4,0.5134
7.122E-4,0.5134
7.123E-4,0.5134
7.126E-4,0.5134
7.13E-4,0.5134
7.13E-4,0.5134
7.13E-4,0.5134
7.13E-4,0.5134
7.131E-4,0.5134
7.131E-4,0.5134
7.131E-4,0.5135
7.133E-4,0.5135
7.135E-4,0.5136
7.137E-4,0.5137
7.140E-4,0.5139
7.140E-4,0.5779
7.140E-4,0.5779
7.140E-4,0.5779
7.140E-4,0.5779
7.140E-4,0.5779
7.140E-4,0.5779
7.140E-4,0.5779
7.140E-4,0.5779
7.140E-4,0.5779
7.141E-4,0.5779
7.141E-4,0.5779
7.141E-4,0.5779
7.142E-4,0.5779
7.144E-4,0.5779
7.147E-4,0.5779
7.15E-4,0.5779
7.15E-4,0.5779
7.15E-4,0.5779
7.15E-4,0.5779
7.151E-4,0.5779
7.151E-4,0.5779
7.152E-4,0.5779
7.153E-4,0.5780
7.155E-4,0.5781
7.16E-4,0.5783
7.16E-4,0.6332
7.16E-4,0.6332
7.16E-4,0.6332
7.16E-4,0.6332
7.161E-4,0.6332
7.161E-4,0.6332
7.162E-4,0.6332
7.164E-4,0.6332
7.167E-4,0.6332
7.17E-4,0.6332
7.17E-4,0.6332
7.17E-4,0.6333
7.171E-4,0.6333
7.171E-4,0.6333
7.171E-4,0.6333
7.172E-4,0.6333
7.174E-4,0.6333
7.177E-4,0.6335
7.18E-4,0.6336
7.18E-4,0.6786
7.18E-4,0.6786
7.18E-4,0.6786
7.18E-4,0.6786
7.181E-4,0.6786
7.181E-4,0.6786
7.182E-4,0.6786
7.184E-4,0.6786
7.187E-4,0.6786
7.19E-4,0.6786
7.19E-4,0.6786
7.19E-4,0.6786
7.191E-4,0.6786
7.191E-4,0.6786
7.191E-4,0.6786
7.192E-4,0.6787
7.194E-4,0.6787
7.197E-4,0.6788
7.2E-4,0.6789
7.2E-4,0.7133
7.2E-4,0.7133
7.2E-4,0.7133
7.201E-4,0.7133
7.201E-4,0.7133
7.201E-4,0.7133
7.202E-4,0.7133
7.205E-4,0.7133
7.207E-4,0.7133
7.21E-4,0.7133
7.21E-4,0.7133
7.21E-4,0.7133
7.211E-4,0.7133
7.211E-4,0.7133
7.211E-4,0.7133
7.212E-4,0.7133
7.214E-4,0.7134
7.217E-4,0.7134
7.22E-4,0.7135
7.22E-4,0.7367
7.22E-4,0.7367
7.221E-4,0.7367
7.221E-4,0.7367
7.221E-4,0.7367
7.222E-4,0.7367
7.223E-4,0.7367
7.227E-4,0.7367
7.23E-4,0.7367
7.23E-4,0.7367
7.23E-4,0.7367
7.231E-4,0.7367
7.231E-4,0.7367
7.232E-4,0.7367
7.233E-4,0.7367
7.236E-4,0.7368
7.24E-4,0.7368
7.24E-4,0.7485
7.24E-4,0.7485
7.241E-4,0.7485
7.241E-4,0.7485
7.241E-4,0.7485
7.242E-4,0.7485
7.244E-4,0.7485
7.247E-4,0.7485
7.25E-4,0.7485
7.25E-4,0.7485
7.25E-4,0.7485
7.251E-4,0.7485
7.251E-4,0.7485
7.252E-4,0.7485
7.255E-4,0.7485
7.257E-4,0.7485
7.26E-4,0.7485
7.26E-4,0.7485
7.26E-4,0.7485
7.261E-4,0.7485
7.262E-4,0.7485
7.263E-4,0.7485
7.266E-4,0.7485
7.270E-4,0.7485
7.270E-4,0.7485
7.270E-4,0.7485
7.271E-4,0.7485
7.271E-4,0.7485
7.272E-4,0.7485
7.273E-4,0.7485
7.277E-4,0.7485
7.28E-4,0.7484
7.28E-4,0.7367
7.28E-4,0.7367
7.281E-4,0.7367
7.281E-4,0.7367
7.281E-4,0.7367
7.282E-4,0.7367
7.284E-4,0.7367
7.287E-4,0.7367
7.29E-4,0.7367
7.29E-4,0.7367
7.29E-4,0.7367
7.291E-4,0.7367
7.291E-4,0.7367
7.292E-4,0.7367
7.293E-4,0.7367
7.295E-4,0.7366
7.298E-4,0.7366
7.3E-4,0.7366
7.3E-4,0.7133
7.3E-4,0.7133
7.301E-4,0.7133
7.301E-4,0.7133
7.301E-4,0.7133
7.302E-4,0.7133
7.303E-4,0.7133
7.307E-4,0.7133
7.310E-4,0.7133
7.310E-4,0.7133
7.310E-4,0.7133
7.311E-4,0.7133
7.311E-4,0.7133
7.311E-4,0.7133
7.312E-4,0.7133
7.314E-4,0.7132
7.317E-4,0.7131
7.32E-4,0.7130
7.32E-4,0.6786
7.32E-4,0.6786
7.32E-4,0.6786
7.321E-4,0.6786
7.321E-4,0.6786
7.321E-4,0.6786
7.322E-4,0.6786
7.325E-4,0.6786
7.327E-4,0.6786
7.33E-4,0.6786
7.33E-4,0.6786
7.33E-4,0.6786
7.331E-4,0.6786
7.331E-4,0.6786
7.331E-4,0.6786
7.332E-4,0.6786
7.334E-4,0.6785
7.337E-4,0.6784
7.34E-4,0.6783
7.34E-4,0.6332
7.34E-4,0.6332
7.34E-4,0.6332
7.34E-4,0.6332
7.341E-4,0.6332
7.341E-4,0.6332
7.342E-4,0.6332
7.344E-4,0.6332
7.347E-4,0.6332
7.350E-4,0.6332
7.350E-4,0.6332
7.350E-4,0.6332
7.351E-4,0.6332
7.351E-4,0.6332
7.351E-4,0.6332
7.352E-4,0.6332
7.353E-4,0.6332
7.356E-4,0.6331
7.36E-4,0.6328
7.36E-4,0.5779
7.36E-4,0.5779
7.36E-4,0.5779
7.36E-4,0.5779
7.361E-4,0.5779
7.361E-4,0.5779
7.362E-4,0.5779
7.364E-4,0.5779
7.367E-4,0.5779
7.37E-4,0.5779
7.37E-4,0.5779
7.37E-4,0.5779
7.37E-4,0.5779
7.371E-4,0.5779
7.371E-4,0.5779
7.372E-4,0.5778
7.373E-4,0.5778
7.375E-4,0.5777
7.378E-4,0.5776
7.38E-4,0.5774
7.38E-4,0.5134
7.38E-4,0.5134
7.38E-4,0.5134
7.38E-4,0.5134
7.38E-4,0.5134
7.38E-4,0.5134
7.38E-4,0.5134
7.38E-4,0.5134
7.38E-4,0.5134
7.381E-4,0.5134
7.381E-4,0.5134
7.381E-4,0.5134
7.382E-4,0.5134
7.384E-4,0.5134
7.387E-4,0.5134
7.390E-4,0.5134
7.390E-4,0.5134
7.390E-4,0.5134
7.390E-4,0.5134
7.391E-4,0.5134
7.391E-4,0.5134
7.391E-4,0.5134
7.393E-4,0.5133
7.395E-4,0.5132
7.397E-4,0.5131
7.4E-4,0.5129
7.4E-4,0.4408
7.4E-4,0.4408
7.4E-4,0.4408
7.4E-4,0.4408
7.401E-4,0.4408
7.401E-4,0.4408
7.402E-4,0.4408
7.403E-4,0.4408
7.406E-4,0.4408
7.41E-4,0.4408
7.41E-4,0.4408
7.41E-4,0.4408
7.41E-4,0.4408
7.411E-4,0.4408
7.411E-4,0.4408
7.411E-4,0.4408
7.412E-4,0.4407
7.415E-4,0.4406
7.417E-4,0.4405
7.42E-4,0.4403
7.42E-4,0.3613
7.42E-4,0.3613
7.42E-4,0.3613
7.42E-4,0.3613
7.421E-4,0.3613
7.421E-4,0.3613
7.422E-4,0.3613
7.423E-4,0.3613
7.426E-4,0.3613
7.43E-4,0.3613
7.43E-4,0.3613
7.43E-4,0.3613
7.43E-4,0.3613
7.431E-4,0.3613
7.431E-4,0.3613
7.431E-4,0.3613
7.432E-4,0.3612
7.434E-4,0.3611
7.437E-4,0.3609
7.44E-4,0.3607
7.44E-4,0.2761
7.44E-4,0.2761
7.44E-4,0.2761
7.44E-4,0.2761
7.44E-4,0.2761
7.44E-4,0.2761
7.44E-4,0.2761
7.44E-4,0.2761
7.44E-4,0.2761
7.44E-4,0.2761
7.44E-4,0.2761
7.44E-4,0.2761
7.441E-4,0.2761
7.441E-4,0.2761
7.442E-4,0.2761
7.443E-4,0.2761
7.446E-4,0.2761
7.45E-4,0.2761
7.45E-4,0.2761
7.45E-4,0.2761
7.45E-4,0.2761
7.451E-4,0.2761
7.451E-4,0.2761
7.451E-4,0.2760
7.452E-4,0.2760
7.454E-4,0.2759
7.457E-4,0.2757
7.46E-4,0.2754
7.46E-4,0.1865
7.46E-4,0.1865
7.46E-4,0.1865
7.46E-4,0.1865
7.461E-4,0.1865
7.461E-4,0.1865
7.462E-4,0.1865
7.463E-4,0.1865
7.466E-4,0.1865
7.47E-4,0.1865
7.47E-4,0.1865
7.47E-4,0.1865
7.47E-4,0.1865
7.471E-4,0.1865
7.471E-4,0.1865
7.471E-4,0.1865
7.472E-4,0.1864
7.474E-4,0.1863
7.477E-4,0.1861
7.48E-4,0.1858
7.48E-4,0.09401
7.48E-4,0.09401
7.48E-4,0.09401
7.48E-4,0.09401
7.481E-4,0.09401
7.481E-4,0.09401
7.482E-4,0.09401
7.483E-4,0.09401
7.486E-4,0.09401
7.49E-4,0.09401
7.49E-4,0.09400
7.49E-4,0.09400
7.49E-4,0.09399
7.491E-4,0.09399
7.491E-4,0.09397
7.491E-4,0.09395
7.492E-4,0.09390
7.494E-4,0.09378
7.497E-4,0.09356
7.5E-4,0.09331
7.5E-4,8.813E-6
7.5E-4,8.812E-6
7.5E-4,8.812E-6
7.5E-4,8.812E-6
7.501E-4,8.812E-6
7.501E-4,8.812E-6
7.502E-4,8.812E-6
7.503E-4,8.812E-6
7.506E-4,8.812E-6
7.51E-4,8.811E-6
7.51E-4,4.055E-6
7.51E-4,-1.029E-6
7.51E-4,-5.904E-6
7.51E-4,-7.607E-6
7.51E-4,-9.215E-6
7.511E-4,-1.083E-5
7.511E-4,-1.203E-5
7.511E-4,-1.341E-5
7.511E-4,-1.477E-5
7.511E-4,-1.749E-5
7.511E-4,-2.298E-5
7.511E-4,-3.412E-5
7.511E-4,-5.707E-5
7.512E-4,-1.056E-4
7.514E-4,-2.133E-4
7.518E-4,-4.709E-4
7.520E-4,-6.891E-4
7.520E-4,-0.09400
7.520E-4,-0.09400
7.520E-4,-0.09400
7.520E-4,-0.09400
7.521E-4,-0.09400
7.521E-4,-0.09400
7.522E-4,-0.09400
7.523E-4,-0.09400
7.526E-4,-0.09400
7.53E-4,-0.09400
7.53E-4,-0.09400
7.53E-4,-0.09400
7.53E-4,-0.09401
7.531E-4,-0.09402
7.531E-4,-0.09403
7.531E-4,-0.09405
7.532E-4,-0.09411
7.534E-4,-0.09422
7.537E-4,-0.09444
7.54E-4,-0.09468
7.54E-4,-0.1865
7.54E-4,-0.1865
7.54E-4,-0.1865
7.54E-4,-0.1865
7.541E-4,-0.1865
7.541E-4,-0.1865
7.542E-4,-0.1865
7.543E-4,-0.1865
7.546E-4,-0.1865
7.55E-4,-0.1865
7.55E-4,-0.1865
7.55E-4,-0.1865
7.55E-4,-0.1865
7.551E-4,-0.1865
7.551E-4,-0.1865
7.551E-4,-0.1866
7.552E-4,-0.1866
7.554E-4,-0.1867
7.557E-4,-0.1869
7.560E-4,-0.1872
7.560E-4,-0.2761
7.560E-4,-0.2761
7.560E-4,-0.2761
7.560E-4,-0.2761
7.561E-4,-0.2761
7.561E-4,-0.2761
7.562E-4,-0.2761
7.563E-4,-0.2761
7.566E-4,-0.2761
7.57E-4,-0.2761
7.57E-4,-0.2761
7.57E-4,-0.2761
7.57E-4,-0.2761
7.571E-4,-0.2761
7.571E-4,-0.2761
7.571E-4,-0.2761
7.572E-4,-0.2762
7.574E-4,-0.2763
7.577E-4,-0.2765
7.58E-4,-0.2767
7.58E-4,-0.3613
7.58E-4,-0.3613
7.58E-4,-0.3613
7.58E-4,-0.3613
7.58E-4,-0.3613
7.58E-4,-0.3613
7.58E-4,-0.3613
7.58E-4,-0.3613
7.58E-4,-0.3613
7.58E-4,-0.3613
7.58E-4,-0.3613
7.58E-4,-0.3613
7.581E-4,-0.3613
7.581E-4,-0.3613
7.582E-4,-0.3613
7.583E-4,-0.3613
7.586E-4,-0.3613
7.59E-4,-0.3613
7.59E-4,-0.3613
7.59E-4,-0.3613
7.59E-4,-0.3613
7.591E-4,-0.3613
7.591E-4,-0.3613
7.591E-4,-0.3614
7.592E-4,-0.3614
7.594E-4,-0.3615
7.597E-4,-0.3617
7.600E-4,-0.3619
7.600E-4,-0.4408
7.600E-4,-0.4408
7.600E-4,-0.4408
7.600E-4,-0.4408
7.601E-4,-0.4408
7.601E-4,-0.4408
7.602E-4,-0.4408
7.603E-4,-0.4408
7.606E-4,-0.4408
7.61E-4,-0.4408
7.61E-4,-0.4408
7.61E-4,-0.4408
7.61E-4,-0.4408
7.611E-4,-0.4409
7.611E-4,-0.4409
7.611E-4,-0.4409
7.613E-4,-0.4409
7.615E-4,-0.4410
7.617E-4,-0.4412
7.62E-4,-0.4414
7.62E-4,-0.5134
7.62E-4,-0.5134
7.62E-4,-0.5134
7.62E-4,-0.5134
7.621E-4,-0.5134
7.621E-4,-0.5134
7.622E-4,-0.5134
7.623E-4,-0.5134
7.626E-4,-0.5134
7.63E-4,-0.5134
7.63E-4,-0.5134
7.63E-4,-0.5134
7.63E-4,-0.5134
7.631E-4,-0.5134
7.631E-4,-0.5134
7.631E-4,-0.5135
7.633E-4,-0.5135
7.635E-4,-0.5136
7.637E-4,-0.5137
7.640E-4,-0.5139
7.640E-4,-0.5779
7.640E-4,-0.5779
7.640E-4,-0.5779
7.640E-4,-0.5779
7.640E-4,-0.5779
7.640E-4,-0.5779
7.640E-4,-0.5779
7.640E-4,-0.5779
7.640E-4,-0.5779
7.641E-4,-0.5779
7.641E-4,-0.5779
7.641E-4,-0.5779
7.642E-4,-0.5779
7.644E-4,-0.5779
7.647E-4,-0.5779
7.65E-4,-0.5779
7.65E-4,-0.5779
7.65E-4,-0.5779
7.65E-4,-0.5779
7.651E-4,-0.5779
7.651E-4,-0.5779
7.652E-4,-0.5779
7.653E-4,-0.5780
7.655E-4,-0.5781
7.66E-4,-0.5783
7.66E-4,-0.6332
7.66E-4,-0.6332
7.66E-4,-0.6332
7.66E-4,-0.6332
7.661E-4,-0.6332
7.661E-4,-0.6332
7.662E-4,-0.6332
7.664E-4,-0.6332
7.667E-4,-0.6332
7.67E-4,-0.6332
7.67E-4,-0.6332
7.67E-4,-0.6333
7.671E-4,-0.6333
7.671E-4,-0.6333
7.671E-4,-0.6333
7.672E-4,-0.6333
7.674E-4,-0.6333
7.677E-4,-0.6335
7.68E-4,-0.6336
7.68E-4,-0.6786
7.68E-4,-0.6786
7.68E-4,-0.6786
7.68E-4,-0.6786
7.681E-4,-0.6786
7.681E-4,-0.6786
7.682E-4,-0.6786
7.684E-4,-0.6786
7.687E-4,-0.6786
7.69E-4,-0.6786
7.69E-4,-0.6786
7.69E-4,-0.6786
7.691E-4,-0.6786
7.691E-4,-0.6786
7.691E-4,-0.6786
7.692E-4,-0.6787
7.694E-4,-0.6787
7.697E-4,-0.6788
7.7E-4,-0.6789
7.7E-4,-0.7133
7.7E-4,-0.7133
7.7E-4,-0.7133
7.701E-4,-0.7133
7.701E-4,-0.7133
7.701E-4,-0.7133
7.702E-4,-0.7133
7.705E-4,-0.7133
7.707E-4,-0.7133
7.71E-4,-0.7133
7.71E-4,-0.7133
7.71E-4,-0.7133
7.711E-4,-0.7133
7.711E-4,-0.7133
7.711E-4,-0.7133
7.712E-4,-0.7133
7.714E-4,-0.7134
7.717E-4,-0.7134
7.72E-4,-0.7135
7.72E-4,-0.7367
7.72E-4,-0.7367
7.721E-4,-0.7367
7.721E-4,-0.7367
7.721E-4,-0.7367
7.722E-4,-0.7367
7.723E-4,-0.7367
7.727E-4,-0.7367
7.73E-4,-0.7367
7.73E-4,-0.7367
7.73E-4,-0.7367
7.731E-4,-0.7367
7.731E-4,-0.7367
7.732E-4,-0.7367
7.733E-4,-0.7367
7.736E-4,-0.7368
7.74E-4,-0.7368
7.74E-4,-0.7485
7.74E-4,-0.7485
7.741E-4,-0.7485
7.741E-4,-0.7485
7.741E-4,-0.7485
7.742E-4,-0.7485
7.744E-4,-0.7485
7.747E-4,-0.7485
7.75E-4,-0.7485
7.75E-4,-0.7485
7.75E-4,-0.7485
7.751E-4,-0.7485
7.751E-4,-0.7485
7.752E-4,-0.7485
7.755E-4,-0.7485
7.757E-4,-0.7485
7.76E-4,-0.7485
7.76E-4,-0.7485
7.76E-4,-0.7485
7.761E-4,-0.7485
7.762E-4,-0.7485
7.763E-4,-0.7485
7.766E-4,-0.7485
7.770E-4,-0.7485
7.770E-4,-0.7485
7.770E-4,-0.7485
7.771E-4,-0.7485
7.771E-4,-0.7485
7.772E-4,-0.7485
7.773E-4,-0.7485
7.777E-4,-0.7485
7.78E-4,-0.7484
7.78E-4,-0.7367
7.78E-4,-0.7367
7.781E-4,-0.7367
7.781E-4,-0.7367
7.781E-4,-0.7367
7.782E-4,-0.7367
7.784E-4,-0.7367
7.787E-4,-0.7367
7.79E-4,-0.7367
7.79E-4,-0.7367
7.79E-4,-0.7367
7.791E-4,-0.7367
7.791E-4,-0.7367
7.792E-4,-0.7367
7.793E-4,-0.7367
7.795E-4,-0.7366
7.798E-4,-0.7366
7.8E-4,-0.7366
7.8E-4,-0.7133
7.8E-4,-0.7133
7.801E-4,-0.7133
7.801E-4,-0.7133
7.801E-4,-0.7133
7.802E-4,-0.7133
7.803E-4,-0.7133
7.807E-4,-0.7133
7.810E-4,-0.7133
7.810E-4,-0.7133
7.810E-4,-0.7133
7.811E-4,-0.7133
7.811E-4,-0.7133
7.811E-4,-0.7133
7.812E-4,-0.7133
7.814E-4,-0.7132
7.817E-4,-0.7131
7.82E-4,-0.7130
7.82E-4,-0.6786
7.82E-4,-0.6786
7.82E-4,-0.6786
7.821E-4,-0.6786
7.821E-4,-0.6786
7.821E-4,-0.6786
7.822E-4,-0.6786
7.825E-4,-0.6786
7.827E-4,-0.6786
7.83E-4,-0.6786
7.83E-4,-0.6786
7.83E-4,-0.6786
7.831E-4,-0.6786
7.831E-4,-0.6786
7.831E-4,-0.6786
7.832E-4,-0.6786
7.834E-4,-0.6785
7.837E-4,-0.6784
7.84E-4,-0.6783
7.84E-4,-0.6332
7.84E-4,-0.6332
7.84E-4,-0.6332
7.84E-4,-0.6332
7.841E-4,-0.6332
7.841E-4,-0.6332
7.842E-4,-0.6332
7.844E-4,-0.6332
7.847E-4,-0.6332
7.850E-4,-0.6332
7.850E-4,-0.6332
7.850E-4,-0.6332
7.851E-4,-0.6332
7.851E-4,-0.6332
7.851E-4,-0.6332
7.852E-4,-0.6332
7.853E-4,-0.6332
7.856E-4,-0.6331
7.86E-4,-0.6328
7.86E-4,-0.5779
7.86E-4,-0.5779
7.86E-4,-0.5779
7.86E-4,-0.5779
7.861E-4,-0.5779
7.861E-4,-0.5779
7.862E-4,-0.5779
7.864E-4,-0.5779
7.867E-4,-0.5779
7.87E-4,-0.5779
7.87E-4,-0.5779
7.87E-4,-0.5779
7.87E-4,-0.5779
7.871E-4,-0.5779
7.871E-4,-0.5779
7.872E-4,-0.5778
7.873E-4,-0.5778
7.875E-4,-0.5777
7.878E-4,-0.5776
7.88E-4,-0.5774
7.88E-4,-0.5134
7.88E-4,-0.5134
7.88E-4,-0.5134
7.88E-4,-0.5134
7.88E-4,-0.5134
7.88E-4,-0.5134
7.88E-4,-0.5134
7.88E-4,-0.5134
7.88E-4,-0.5134
7.881E-4,-0.5134
7.881E-4,-0.5134
7.881E-4,-0.5134
7.882E-4,-0.5134
7.884E-4,-0.5134
7.887E-4,-0.5134
7.890E-4,-0.5134
7.890E-4,-0.5134
7.890E-4,-0.5134
7.890E-4,-0.5134
7.891E-4,-0.5134
7.891E-4,-0.5134
7.891E-4,-0.5134
7.893E-4,-0.5133
7.895E-4,-0.5132
7.897E-4,-0.5131
7.9E-4,-0.5129
7.9E-4,-0.4408
7.9E-4,-0.4408
7.9E-4,-0.4408
7.9E-4,-0.4408
7.901E-4,-0.4408
7.901E-4,-0.4408
7.902E-4,-0.4408
7.903E-4,-0.4408
7.906E-4,-0.4408
7.91E-4,-0.4408
7.91E-4,-0.4408
7.91E-4,-0.4408
7.91E-4,-0.4408
7.911E-4,-0.4408
7.911E-4,-0.4408
7.911E-4,-0.4408
7.912E-4,-0.4407
7.915E-4,-0.4406
7.917E-4,-0.4405
7.92E-4,-0.4403
7.92E-4,-0.3613
7.92E-4,-0.3613
7.92E-4,-0.3613
7.92E-4,-0.3613
7.921E-4,-0.3613
7.921E-4,-0.3613
7.922E-4,-0.3613
7.923E-4,-0.3613
7.926E-4,-0.3613
7.930E-4,-0.3613
7.930E-4,-0.3613
7.930E-4,-0.3613
7.930E-4,-0.3613
7.931E-4,-0.3613
7.931E-4,-0.3613
7.931E-4,-0.3613
7.932E-4,-0.3612
7.934E-4,-0.3611
7.937E-4,-0.3609
7.94E-4,-0.3607
7.94E-4,-0.2761
7.94E-4,-0.2761
7.94E-4,-0.2761
7.94E-4,-0.2761
7.94E-4,-0.2761
7.94E-4,-0.2761
7.94E-4,-0.2761
7.94E-4,-0.2761
7.94E-4,-0.2761
7.94E-4,-0.2761
7.94E-4,-0.2761
7.94E-4,-0.2761
7.941E-4,-0.2761
7.941E-4,-0.2761
7.942E-4,-0.2761
7.943E-4,-0.2761
7.946E-4,-0.2761
7.95E-4,-0.2761
7.95E-4,-0.2761
7.95E-4,-0.2761
7.95E-4,-0.2761
7.951E-4,-0.2761
7.951E-4,-0.2761
7.951E-4,-0.2760
7.952E-4,-0.2760
7.954E-4,-0.2759
7.957E-4,-0.2757
7.96E-4,-0.2754
7.96E-4,-0.1865
7.96E-4,-0.1865
7.96E-4,-0.1865
7.96E-4,-0.1865
7.961E-4,-0.1865
7.961E-4,-0.1865
7.962E-4,-0.1865
7.963E-4,-0.1865
7.966E-4,-0.1865
7.97E-4,-0.1865
7.97E-4,-0.1865
7.97E-4,-0.1865
7.97E-4,-0.1865
7.971E-4,-0.1865
7.971E-4,-0.1865
7.971E-4,-0.1865
7.972E-4,-0.1864
7.974E-4,-0.1863
7.977E-4,-0.1861
7.98E-4,-0.1858
7.98E-4,-0.09401
7.98E-4,-0.09401
7.98E-4,-0.09401
7.98E-4,-0.09401
7.981E-4,-0.09401
7.981E-4,-0.09401
7.982E-4,-0.09401
7.983E-4,-0.09401
7.986E-4,-0.09401
7.99E-4,-0.09401
7.99E-4,-0.09400
7.99E-4,-0.09400
7.99E-4,-0.09399
7.991E-4,-0.09399
7.991E-4,-0.09397
7.991E-4,-0.09395
7.992E-4,-0.09390
7.994E-4,-0.09378
7.997E-4,-0.09356
8.0E-4,-0.09331
8.0E-4,-8.813E-6
8.0E-4,-8.812E-6
8.0E-4,-8.812E-6
8.0E-4,-8.812E-6
8.001E-4,-8.812E-6
8.001E-4,-8.812E-6
8.002E-4,-8.812E-6
8.003E-4,-8.812E-6
8.006E-4,-8.812E-6
8.01E-4,-8.811E-6
8.01E-4,-4.055E-6
8.01E-4,1.029E-6
8.01E-4,5.904E-6
8.01E-4,7.607E-6
8.01E-4,9.215E-6
8.011E-4,1.083E-5
8.011E-4,1.203E-5
8.011E-4,1.341E-5
8.011E-4,1.477E-5
8.011E-4,1.749E-5
8.011E-4,2.298E-5
8.011E-4,3.412E-5
8.011E-4,5.707E-5
8.012E-4,1.056E-4
8.014E-4,2.133E-4
8.018E-4,4.709E-4
8.02E-4,6.891E-4
8.02E-4,0.09400
8.02E-4,0.09400
8.02E-4,0.09400
8.02E-4,0.09400
8.021E-4,0.09400
8.021E-4,0.09400
8.022E-4,0.09400
8.023E-4,0.09400
8.026E-4,0.09400
8.03E-4,0.09400
8.03E-4,0.09400
8.03E-4,0.09400
8.03E-4,0.09401
8.031E-4,0.09402
8.031E-4,0.09403
8.031E-4,0.09405
8.032E-4,0.09411
8.034E-4,0.09422
8.037E-4,0.09444
8.040E-4,0.09468
8.040E-4,0.1865
8.040E-4,0.1865
8.040E-4,0.1865
8.040E-4,0.1865
8.041E-4,0.1865
8.041E-4,0.1865
8.042E-4,0.1865
8.043E-4,0.1865
8.046E-4,0.1865
8.05E-4,0.1865
8.05E-4,0.1865
8.05E-4,0.1865
8.05E-4,0.1865
8.051E-4,0.1865
8.051E-4,0.1865
8.051E-4,0.1866
8.052E-4,0.1866
8.054E-4,0.1867
8.057E-4,0.1869
8.06E-4,0.1872
8.06E-4,0.2761
8.06E-4,0.2761
8.06E-4,0.2761
8.06E-4,0.2761
8.061E-4,0.2761
8.061E-4,0.2761
8.062E-4,0.2761
8.063E-4,0.2761
8.066E-4,0.2761
8.07E-4,0.2761
8.07E-4,0.2761
8.07E-4,0.2761
8.07E-4,0.2761
8.071E-4,0.2761
8.071E-4,0.2761
8.071E-4,0.2761
8.072E-4,0.2762
8.074E-4,0.2763
8.077E-4,0.2765
8.08E-4,0.2767
8.08E-4,0.3613
8.08E-4,0.3613
8.08E-4,0.3613
8.08E-4,0.3613
8.08E-4,0.3613
8.08E-4,0.3613
8.08E-4,0.3613
8.08E-4,0.3613
8.08E-4,0.3613
8.08E-4,0.3613
8.08E-4,0.3613
8.08E-4,0.3613
8.081E-4,0.3613
8.081E-4,0.3613
8.082E-4,0.3613
8.083E-4,0.3613
8.086E-4,0.3613
8.09E-4,0.3613
8.09E-4,0.3613
8.09E-4,0.3613
8.09E-4,0.3613
8.091E-4,0.3613
8.091E-4,0.3613
8.091E-4,0.3614
8.092E-4,0.3614
8.094E-4,0.3615
8.097E-4,0.3617
8.1E-4,0.3619
8.1E-4,0.4408
8.1E-4,0.4408
8.1E-4,0.4408
8.1E-4,0.4408
8.101E-4,0.4408
8.101E-4,0.4408
8.102E-4,0.4408
8.103E-4,0.4408
8.106E-4,0.4408
8.11E-4,0.4408
8.11E-4,0.4408
8.11E-4,0.4408
8.11E-4,0.4408
8.111E-4,0.4409
8.111E-4,0.4409
8.111E-4,0.4409
8.113E-4,0.4409
8.115E-4,0.4410
8.117E-4,0.4412
8.120E-4,0.4414
8.120E-4,0.5134
8.120E-4,0.5134
8.120E-4,0.5134
8.120E-4,0.5134
8.121E-4,0.5134
8.121E-4,0.5134
8.122E-4,0.5134
8.123E-4,0.5134
8.126E-4,0.5134
8.13E-4,0.5134
8.13E-4,0.5134
8.13E-4,0.5134
8.13E-4,0.5134
8.131E-4,0.5134
8.131E-4,0.5134
8.131E-4,0.5135
8.133E-4,0.5135
8.135E-4,0.5136
8.137E-4,0.5137
8.14E-4,0.5139
8.14E-4,0.5779
8.14E-4,0.5779
8.14E-4,0.5779
8.14E-4,0.5779
8.14E-4,0.5779
8.14E-4,0.5779
8.14E-4,0.5779
8.14E-4,0.5779
8.14E-4,0.5779
8.141E-4,0.5779
8.141E-4,0.5779
8.141E-4,0.5779
8.142E-4,0.5779
8.144E-4,0.5779
8.147E-4,0.5779
8.15E-4,0.5779
8.15E-4,0.5779
8.15E-4,0.5779
8.15E-4,0.5779
8.151E-4,0.5779
8.151E-4,0.5779
8.152E-4,0.5779
8.153E-4,0.5780
8.155E-4,0.5781
8.16E-4,0.5783
8.16E-4,0.6332
8.16E-4,0.6332
8.16E-4,0.6332
8.16E-4,0.6332
8.161E-4,0.6332
8.161E-4,0.6332
8.162E-4,0.6332
8.164E-4,0.6332
8.167E-4,0.6332
8.17E-4,0.6332
8.17E-4,0.6332
8.17E-4,0.6333
8.171E-4,0.6333
8.171E-4,0.6333
8.171E-4,0.6333
8.172E-4,0.6333
8.174E-4,0.6333
8.177E-4,0.6335
8.18E-4,0.6336
8.18E-4,0.6786
8.18E-4,0.6786
8.18E-4,0.6786
8.18E-4,0.6786
8.181E-4,0.6786
8.181E-4,0.6786
8.182E-4,0.6786
8.184E-4,0.6786
8.187E-4,0.6786
8.19E-4,0.6786
8.19E-4,0.6786
8.19E-4,0.6786
8.191E-4,0.6786
8.191E-4,0.6786
8.191E-4,0.6786
8.192E-4,0.6787
8.194E-4,0.6787
8.197E-4,0.6788
8.2E-4,0.6789
8.2E-4,0.7133
8.2E-4,0.7133
8.2E-4,0.7133
8.201E-4,0.7133
8.201E-4,0.7133
8.201E-4,0.7133
8.202E-4,0.7133
8.205E-4,0.7133
8.207E-4,0.7133
8.21E-4,0.7133
8.21E-4,0.7133
8.21E-4,0.7133
8.211E-4,0.7133
8.211E-4,0.7133
8.211E-4,0.7133
8.212E-4,0.7133
8.214E-4,0.7134
8.217E-4,0.7134
8.22E-4,0.7135
8.22E-4,0.7367
8.22E-4,0.7367
8.221E-4,0.7367
8.221E-4,0.7367
8.221E-4,0.7367
8.222E-4,0.7367
8.223E-4,0.7367
8.227E-4,0.7367
8.23E-4,0.7367
8.23E-4,0.7367
8.23E-4,0.7367
8.231E-4,0.7367
8.231E-4,0.7367
8.232E-4,0.7367
8.233E-4,0.7367
8.236E-4,0.7368
8.24E-4,0.7368
8.24E-4,0.7485
8.24E-4,0.7485
8.241E-4,0.7485
8.241E-4,0.7485
8.241E-4,0.7485
8.242E-4,0.7485
8.244E-4,0.7485
8.247E-4,0.7485
8.25E-4,0.7485
8.25E-4,0.7485
8.25E-4,0.7485
8.251E-4,0.7485
8.251E-4,0.7485
8.252E-4,0.7485
8.255E-4,0.7485
8.257E-4,0.7485
8.26E-4,0.7485
8.26E-4,0.7485
8.26E-4,0.7485
8.261E-4,0.7485
8.262E-4,0.7485
8.263E-4,0.7485
8.266E-4,0.7485
8.27E-4,0.7485
8.27E-4,0.7485
8.27E-4,0.7485
8.271E-4,0.7485
8.271E-4,0.7485
8.272E-4,0.7485
8.273E-4,0.7485
8.277E-4,0.7485
8.28E-4,0.7484
8.28E-4,0.7367
8.28E-4,0.7367
8.281E-4,0.7367
8.281E-4,0.7367
8.281E-4,0.7367
8.282E-4,0.7367
8.284E-4,0.7367
8.287E-4,0.7367
8.290E-4,0.7367
8.290E-4,0.7367
8.290E-4,0.7367
8.291E-4,0.7367
8.291E-4,0.7367
8.292E-4,0.7367
8.293E-4,0.7367
8.295E-4,0.7366
8.298E-4,0.7366
8.3E-4,0.7366
8.3E-4,0.7133
8.3E-4,0.7133
8.301E-4,0.7133
8.301E-4,0.7133
8.301E-4,0.7133
8.302E-4,0.7133
8.303E-4,0.7133
8.307E-4,0.7133
8.31E-4,0.7133
8.31E-4,0.7133
8.31E-4,0.7133
8.311E-4,0.7133
8.311E-4,0.7133
8.311E-4,0.7133
8.312E-4,0.7133
8.314E-4,0.7132
8.317E-4,0.7131
8.32E-4,0.7130
8.32E-4,0.6786
8.32E-4,0.6786
8.32E-4,0.6786
8.321E-4,0.6786
8.321E-4,0.6786
8.321E-4,0.6786
8.322E-4,0.6786
8.325E-4,0.6786
8.327E-4,0.6786
8.33E-4,0.6786
8.33E-4,0.6786
8.33E-4,0.6786
8.331E-4,0.6786
8.331E-4,0.6786
8.331E-4,0.6786
8.332E-4,0.6786
8.334E-4,0.6785
8.337E-4,0.6784
8.34E-4,0.6783
8.34E-4,0.6332
8.34E-4,0.6332
8.34E-4,0.6332
8.34E-4,0.6332
8.341E-4,0.6332
8.341E-4,0.6332
8.342E-4,0.6332
8.344E-4,0.6332
8.347E-4,0.6332
8.35E-4,0.6332
8.35E-4,0.6332
8.35E-4,0.6332
8.351E-4,0.6332
8.351E-4,0.6332
8.351E-4,0.6332
8.352E-4,0.6332
8.353E-4,0.6332
8.356E-4,0.6331
8.36E-4,0.6328
8.36E-4,0.5779
8.36E-4,0.5779
8.36E-4,0.5779
8.36E-4,0.5779
8.361E-4,0.5779
8.361E-4,0.5779
8.362E-4,0.5779
8.364E-4,0.5779
8.367E-4,0.5779
8.370E-4,0.5779
8.370E-4,0.5779
8.370E-4,0.5779
8.370E-4,0.5779
8.371E-4,0.5779
8.371E-4,0.5779
8.372E-4,0.5778
8.373E-4,0.5778
8.375E-4,0.5777
8.378E-4,0.5776
8.38E-4,0.5774
8.38E-4,0.5134
8.38E-4,0.5134
8.38E-4,0.5134
8.38E-4,0.5134
8.38E-4,0.5134
8.38E-4,0.5134
8.38E-4,0.5134
8.38E-4,0.5134
8.38E-4,0.5134
8.381E-4,0.5134
8.381E-4,0.5134
8.381E-4,0.5134
8.382E-4,0.5134
8.384E-4,0.5134
8.387E-4,0.5134
8.39E-4,0.5134
8.39E-4,0.5134
8.39E-4,0.5134
8.39E-4,0.5134
8.391E-4,0.5134
8.391E-4,0.5134
8.391E-4,0.5134
8.393E-4,0.5133
8.395E-4,0.5132
8.397E-4,0.5131
8.4E-4,0.5129
8.4E-4,0.4408
8.4E-4,0.4408
8.4E-4,0.4408
8.4E-4,0.4408
8.401E-4,0.4408
8.401E-4,0.4408
8.402E-4,0.4408
8.403E-4,0.4408
8.406E-4,0.4408
8.41E-4,0.4408
8.41E-4,0.4408
8.41E-4,0.4408
8.41E-4,0.4408
8.411E-4,0.4408
8.411E-4,0.4408
8.411E-4,0.4408
8.412E-4,0.4407
8.415E-4,0.4406
8.417E-4,0.4405
8.42E-4,0.4403
8.42E-4,0.3613
8.42E-4,0.3613
8.42E-4,0.3613
8.42E-4,0.3613
8.421E-4,0.3613
8.421E-4,0.3613
8.422E-4,0.3613
8.423E-4,0.3613
8.426E-4,0.3613
8.43E-4,0.3613
8.43E-4,0.3613
8.43E-4,0.3613
8.43E-4,0.3613
8.431E-4,0.3613
8.431E-4,0.3613
8.431E-4,0.3613
8.432E-4,0.3612
8.434E-4,0.3611
8.437E-4,0.3609
8.44E-4,0.3607
8.44E-4,0.2761
8.44E-4,0.2761
8.44E-4,0.2761
8.44E-4,0.2761
8.44E-4,0.2761
8.44E-4,0.2761
8.44E-4,0.2761
8.44E-4,0.2761
8.44E-4,0.2761
8.44E-4,0.2761
8.44E-4,0.2761
8.44E-4,0.2761
8.441E-4,0.2761
8.441E-4,0.2761
8.442E-4,0.2761
8.443E-4,0.2761
8.446E-4,0.2761
8.45E-4,0.2761
8.45E-4,0.2761
8.45E-4,0.2761
8.45E-4,0.2761
8.451E-4,0.2761
8.451E-4,0.2761
8.451E-4,0.2760
8.452E-4,0.2760
8.454E-4,0.2759
8.457E-4,0.2757
8.46E-4,0.2754
8.46E-4,0.1865
8.46E-4,0.1865
8.46E-4,0.1865
8.46E-4,0.1865
8.461E-4,0.1865
8.461E-4,0.1865
8.462E-4,0.1865
8.463E-4,0.1865
8.466E-4,0.1865
8.47E-4,0.1865
8.47E-4,0.1865
8.47E-4,0.1865
8.47E-4,0.1865
8.471E-4,0.1865
8.471E-4,0.1865
8.471E-4,0.1865
8.472E-4,0.1864
8.474E-4,0.1863
8.477E-4,0.1861
8.48E-4,0.1858
8.48E-4,0.09401
8.48E-4,0.09401
8.48E-4,0.09401
8.48E-4,0.09401
8.481E-4,0.09401
8.481E-4,0.09401
8.482E-4,0.09401
8.483E-4,0.09401
8.486E-4,0.09401
8.49E-4,0.09401
8.49E-4,0.09400
8.49E-4,0.09400
8.49E-4,0.09399
8.491E-4,0.09399
8.491E-4,0.09397
8.491E-4,0.09395
8.492E-4,0.09390
8.494E-4,0.09378
8.497E-4,0.09356
8.5E-4,0.09331
8.5E-4,8.813E-6
8.5E-4,8.812E-6
8.5E-4,8.812E-6
8.5E-4,8.812E-6
8.501E-4,8.812E-6
8.501E-4,8.812E-6
8.502E-4,8.812E-6
8.503E-4,8.812E-6
8.506E-4,8.812E-6
8.51E-4,8.811E-6
8.51E-4,4.055E-6
8.51E-4,-1.029E-6
8.51E-4,-5.904E-6
8.51E-4,-7.607E-6
8.51E-4,-9.215E-6
8.511E-4,-1.083E-5
8.511E-4,-1.203E-5
8.511E-4,-1.341E-5
8.511E-4,-1.477E-5
8.511E-4,-1.749E-5
8.511E-4,-2.298E-5
8.511E-4,-3.412E-5
8.511E-4,-5.707E-5
8.512E-4,-1.056E-4
8.514E-4,-2.133E-4
8.518E-4,-4.709E-4
8.52E-4,-6.891E-4
8.52E-4,-0.09400
8.52E-4,-0.09400
8.52E-4,-0.09400
8.52E-4,-0.09400
8.521E-4,-0.09400
8.521E-4,-0.09400
8.522E-4,-0.09400
8.523E-4,-0.09400
8.526E-4,-0.09400
8.53E-4,-0.09400
8.53E-4,-0.09400
8.53E-4,-0.09400
8.53E-4,-0.09401
8.531E-4,-0.09402
8.531E-4,-0.09403
8.531E-4,-0.09405
8.532E-4,-0.09411
8.534E-4,-0.09422
8.537E-4,-0.09444
8.540E-4,-0.09468
8.540E-4,-0.1865
8.540E-4,-0.1865
8.540E-4,-0.1865
8.540E-4,-0.1865
8.541E-4,-0.1865
8.541E-4,-0.1865
8.542E-4,-0.1865
8.543E-4,-0.1865
8.546E-4,-0.1865
8.55E-4,-0.1865
8.55E-4,-0.1865
8.55E-4,-0.1865
8.55E-4,-0.1865
8.551E-4,-0.1865
8.551E-4,-0.1865
8.551E-4,-0.1866
8.552E-4,-0.1866
8.554E-4,-0.1867
8.557E-4,-0.1869
8.56E-4,-0.1872
8.56E-4,-0.2761
8.56E-4,-0.2761
8.56E-4,-0.2761
8.56E-4,-0.2761
8.561E-4,-0.2761
8.561E-4,-0.2761
8.562E-4,-0.2761
8.563E-4,-0.2761
8.566E-4,-0.2761
8.57E-4,-0.2761
8.57E-4,-0.2761
8.57E-4,-0.2761
8.57E-4,-0.2761
8.571E-4,-0.2761
8.571E-4,-0.2761
8.571E-4,-0.2761
8.572E-4,-0.2762
8.574E-4,-0.2763
8.577E-4,-0.2765
8.58E-4,-0.2767
8.58E-4,-0.3613
8.58E-4,-0.3613
8.58E-4,-0.3613
8.58E-4,-0.3613
8.58E-4,-0.3613
8.58E-4,-0.3613
8.58E-4,-0.3613
8.58E-4,-0.3613
8.58E-4,-0.3613
8.58E-4,-0.3613
8.58E-4,-0.3613
8.58E-4,-0.3613
8.581E-4,-0.3613
8.581E-4,-0.3613
8.582E-4,-0.3613
8.583E-4,-0.3613
8.586E-4,-0.3613
8.59E-4,-0.3613
8.59E-4,-0.3613
8.59E-4,-0.3613
8.59E-4,-0.3613
8.591E-4,-0.3613
8.591E-4,-0.3613
8.591E-4,-0.3614
8.592E-4,-0.3614
8.594E-4,-0.3615
8.597E-4,-0.3617
8.6E-4,-0.3619
8.6E-4,-0.4408
8.6E-4,-0.4408
8.6E-4,-0.4408
8.6E-4,-0.4408
8.601E-4,-0.4408
8.601E-4,-0.4408
8.602E-4,-0.4408
8.603E-4,-0.4408
8.606E-4,-0.4408
8.61E-4,-0.4408
8.61E-4,-0.4408
8.61E-4,-0.4408
8.61E-4,-0.4408
8.611E-4,-0.4409
8.611E-4,-0.4409
8.611E-4,-0.4409
8.613E-4,-0.4409
8.615E-4,-0.4410
8.617E-4,-0.4412
8.620E-4,-0.4414
8.620E-4,-0.5134
8.620E-4,-0.5134
8.620E-4,-0.5134
8.620E-4,-0.5134
8.621E-4,-0.5134
8.621E-4,-0.5134
8.622E-4,-0.5134
8.623E-4,-0.5134
8.626E-4,-0.5134
8.63E-4,-0.5134
8.63E-4,-0.5134
8.63E-4,-0.5134
8.63E-4,-0.5134
8.631E-4,-0.5134
8.631E-4,-0.5134
8.631E-4,-0.5135
8.633E-4,-0.5135
8.635E-4,-0.5136
8.637E-4,-0.5137
8.64E-4,-0.5139
8.64E-4,-0.5779
8.64E-4,-0.5779
8.64E-4,-0.5779
8.64E-4,-0.5779
8.64E-4,-0.5779
8.64E-4,-0.5779
8.64E-4,-0.5779
8.64E-4,-0.5779
8.64E-4,-0.5779
8.641E-4,-0.5779
8.641E-4,-0.5779
8.641E-4,-0.5779
8.642E-4,-0.5779
8.644E-4,-0.5779
8.647E-4,-0.5779
8.65E-4,-0.5779
8.65E-4,-0.5779
8.65E-4,-0.5779
8.65E-4,-0.5779
8.651E-4,-0.5779
8.651E-4,-0.5779
8.652E-4,-0.5779
8.653E-4,-0.5780
8.655E-4,-0.5781
8.66E-4,-0.5783
8.66E-4,-0.6332
8.66E-4,-0.6332
8.66E-4,-0.6332
8.66E-4,-0.6332
8.661E-4,-0.6332
8.661E-4,-0.6332
8.662E-4,-0.6332
8.664E-4,-0.6332
8.667E-4,-0.6332
8.67E-4,-0.6332
8.67E-4,-0.6332
8.67E-4,-0.6333
8.671E-4,-0.6333
8.671E-4,-0.6333
8.671E-4,-0.6333
8.672E-4,-0.6333
8.674E-4,-0.6333
8.677E-4,-0.6335
8.68E-4,-0.6336
8.68E-4,-0.6786
8.68E-4,-0.6786
8.68E-4,-0.6786
8.68E-4,-0.6786
8.681E-4,-0.6786
8.681E-4,-0.6786
8.682E-4,-0.6786
8.684E-4,-0.6786
8.687E-4,-0.6786
8.69E-4,-0.6786
8.69E-4,-0.6786
8.69E-4,-0.6786
8.691E-4,-0.6786
8.691E-4,-0.6786
8.691E-4,-0.6786
8.692E-4,-0.6787
8.694E-4,-0.6787
8.697E-4,-0.6788
8.700E-4,-0.6789
8.700E-4,-0.7133
8.700E-4,-0.7133
8.700E-4,-0.7133
8.701E-4,-0.7133
8.701E-4,-0.7133
8.701E-4,-0.7133
8.702E-4,-0.7133
8.705E-4,-0.7133
8.707E-4,-0.7133
8.71E-4,-0.7133
8.71E-4,-0.7133
8.71E-4,-0.7133
8.711E-4,-0.7133
8.711E-4,-0.7133
8.711E-4,-0.7133
8.712E-4,-0.7133
8.714E-4,-0.7134
8.717E-4,-0.7134
8.72E-4,-0.7135
8.72E-4,-0.7367
8.72E-4,-0.7367
8.721E-4,-0.7367
8.721E-4,-0.7367
8.721E-4,-0.7367
8.722E-4,-0.7367
8.723E-4,-0.7367
8.727E-4,-0.7367
8.73E-4,-0.7367
8.73E-4,-0.7367
8.73E-4,-0.7367
8.731E-4,-0.7367
8.731E-4,-0.7367
8.732E-4,-0.7367
8.733E-4,-0.7367
8.736E-4,-0.7368
8.74E-4,-0.7368
8.74E-4,-0.7485
8.74E-4,-0.7485
8.741E-4,-0.7485
8.741E-4,-0.7485
8.741E-4,-0.7485
8.742E-4,-0.7485
8.744E-4,-0.7485
8.747E-4,-0.7485
8.75E-4,-0.7485
8.75E-4,-0.7485
8.75E-4,-0.7485
8.751E-4,-0.7485
8.751E-4,-0.7485
8.752E-4,-0.7485
8.755E-4,-0.7485
8.757E-4,-0.7485
8.76E-4,-0.7485
8.76E-4,-0.7485
8.76E-4,-0.7485
8.761E-4,-0.7485
8.762E-4,-0.7485
8.763E-4,-0.7485
8.766E-4,-0.7485
8.77E-4,-0.7485
8.77E-4,-0.7485
8.77E-4,-0.7485
8.771E-4,-0.7485
8.771E-4,-0.7485
8.772E-4,-0.7485
8.773E-4,-0.7485
8.777E-4,-0.7485
8.78E-4,-0.7484
8.78E-4,-0.7367
8.78E-4,-0.7367
8.781E-4,-0.7367
8.781E-4,-0.7367
8.781E-4,-0.7367
8.782E-4,-0.7367
8.784E-4,-0.7367
8.787E-4,-0.7367
8.790E-4,-0.7367
8.790E-4,-0.7367
8.790E-4,-0.7367
8.791E-4,-0.7367
8.791E-4,-0.7367
8.792E-4,-0.7367
8.793E-4,-0.7367
8.795E-4,-0.7366
8.798E-4,-0.7366
8.8E-4,-0.7366
8.8E-4,-0.7133
8.8E-4,-0.7133
8.801E-4,-0.7133
8.801E-4,-0.7133
8.801E-4,-0.7133
8.802E-4,-0.7133
8.803E-4,-0.7133
8.807E-4,-0.7133
8.81E-4,-0.7133
8.81E-4,-0.7133
8.81E-4,-0.7133
8.811E-4,-0.7133
8.811E-4,-0.7133
8.811E-4,-0.7133
8.812E-4,-0.7133
8.814E-4,-0.7132
8.817E-4,-0.7131
8.82E-4,-0.7130
8.82E-4,-0.6786
8.82E-4,-0.6786
8.82E-4,-0.6786
8.821E-4,-0.6786
8.821E-4,-0.6786
8.821E-4,-0.6786
8.822E-4,-0.6786
8.825E-4,-0.6786
8.827E-4,-0.6786
8.83E-4,-0.6786
8.83E-4,-0.6786
8.83E-4,-0.6786
8.831E-4,-0.6786
8.831E-4,-0.6786
8.831E-4,-0.6786
8.832E-4,-0.6786
8.834E-4,-0.6785
8.837E-4,-0.6784
8.84E-4,-0.6783
8.84E-4,-0.6332
8.84E-4,-0.6332
8.84E-4,-0.6332
8.84E-4,-0.6332
8.841E-4,-0.6332
8.841E-4,-0.6332
8.842E-4,-0.6332
8.844E-4,-0.6332
8.847E-4,-0.6332
8.85E-4,-0.6332
8.85E-4,-0.6332
8.85E-4,-0.6332
8.851E-4,-0.6332
8.851E-4,-0.6332
8.851E-4,-0.6332
8.852E-4,-0.6332
8.853E-4,-0.6332
8.856E-4,-0.6331
8.86E-4,-0.6328
8.86E-4,-0.5779
8.86E-4,-0.5779
8.86E-4,-0.5779
8.86E-4,-0.5779
8.861E-4,-0.5779
8.861E-4,-0.5779
8.862E-4,-0.5779
8.864E-4,-0.5779
8.867E-4,-0.5779
8.870E-4,-0.5779
8.870E-4,-0.5779
8.870E-4,-0.5779
8.870E-4,-0.5779
8.871E-4,-0.5779
8.871E-4,-0.5779
8.872E-4,-0.5778
8.873E-4,-0.5778
8.875E-4,-0.5777
8.878E-4,-0.5776
8.88E-4,-0.5774
8.88E-4,-0.5134
8.88E-4,-0.5134
8.88E-4,-0.5134
8.88E-4,-0.5134
8.88E-4,-0.5134
8.88E-4,-0.5134
8.88E-4,-0.5134
8.88E-4,-0.5134
8.88E-4,-0.5134
8.881E-4,-0.5134
8.881E-4,-0.5134
8.881E-4,-0.5134
8.882E-4,-0.5134
8.884E-4,-0.5134
8.887E-4,-0.5134
8.89E-4,-0.5134
8.89E-4,-0.5134
8.89E-4,-0.5134
8.89E-4,-0.5134
8.891E-4,-0.5134
8.891E-4,-0.5134
8.891E-4,-0.5134
8.893E-4,-0.5133
8.895E-4,-0.5132
8.897E-4,-0.5131
8.9E-4,-0.5129
8.9E-4,-0.4408
8.9E-4,-0.4408
8.9E-4,-0.4408
8.9E-4,-0.4408
8.901E-4,-0.4408
8.901E-4,-0.4408
8.902E-4,-0.4408
8.903E-4,-0.4408
8.906E-4,-0.4408
8.91E-4,-0.4408
8.91E-4,-0.4408
8.91E-4,-0.4408
8.91E-4,-0.4408
8.911E-4,-0.4408
8.911E-4,-0.4408
8.911E-4,-0.4408
8.912E-4,-0.4407
8.915E-4,-0.4406
8.917E-4,-0.4405
8.92E-4,-0.4403
8.92E-4,-0.3613
8.92E-4,-0.3613
8.92E-4,-0.3613
8.92E-4,-0.3613
8.921E-4,-0.3613
8.921E-4,-0.3613
8.922E-4,-0.3613
8.923E-4,-0.3613
8.926E-4,-0.3613
8.93E-4,-0.3613
8.93E-4,-0.3613
8.93E-4,-0.3613
8.93E-4,-0.3613
8.931E-4,-0.3613
8.931E-4,-0.3613
8.931E-4,-0.3613
8.932E-4,-0.3612
8.934E-4,-0.3611
8.937E-4,-0.3609
8.94E-4,-0.3607
8.94E-4,-0.2761
8.94E-4,-0.2761
8.94E-4,-0.2761
8.94E-4,-0.2761
8.94E-4,-0.2761
8.94E-4,-0.2761
8.94E-4,-0.2761
8.94E-4,-0.2761
8.94E-4,-0.2761
8.94E-4,-0.2761
8.94E-4,-0.2761
8.94E-4,-0.2761
8.941E-4,-0.2761
8.941E-4,-0.2761
8.942E-4,-0.2761
8.943E-4,-0.2761
8.946E-4,-0.2761
8.950E-4,-0.2761
8.950E-4,-0.2761
8.950E-4,-0.2761
8.950E-4,-0.2761
8.951E-4,-0.2761
8.951E-4,-0.2761
8.951E-4,-0.2760
8.952E-4,-0.2760
8.954E-4,-0.2759
8.957E-4,-0.2757
8.96E-4,-0.2754
8.96E-4,-0.1865
8.96E-4,-0.1865
8.96E-4,-0.1865
8.96E-4,-0.1865
8.961E-4,-0.1865
8.961E-4,-0.1865
8.962E-4,-0.1865
8.963E-4,-0.1865
8.966E-4,-0.1865
8.97E-4,-0.1865
8.97E-4,-0.1865
8.97E-4,-0.1865
8.97E-4,-0.1865
8.971E-4,-0.1865
8.971E-4,-0.1865
8.971E-4,-0.1865
8.972E-4,-0.1864
8.974E-4,-0.1863
8.977E-4,-0.1861
8.98E-4,-0.1858
8.98E-4,-0.09401
8.98E-4,-0.09401
8.98E-4,-0.09401
8.98E-4,-0.09401
8.981E-4,-0.09401
8.981E-4,-0.09401
8.982E-4,-0.09401
8.983E-4,-0.09401
8.986E-4,-0.09401
8.99E-4,-0.09401
8.99E-4,-0.09400
8.99E-4,-0.09400
8.99E-4,-0.09399
8.991E-4,-0.09399
8.991E-4,-0.09397
8.991E-4,-0.09395
8.992E-4,-0.09390
8.994E-4,-0.09378
8.997E-4,-0.09356
9.0E-4,-0.09331
9.0E-4,-8.813E-6
9.0E-4,-8.812E-6
9.0E-4,-8.812E-6
9.0E-4,-8.812E-6
9.001E-4,-8.812E-6
9.001E-4,-8.812E-6
9.002E-4,-8.812E-6
9.003E-4,-8.812E-6
9.006E-4,-8.812E-6
9.01E-4,-8.811E-6
9.01E-4,-4.055E-6
9.01E-4,1.029E-6
9.01E-4,5.904E-6
9.01E-4,7.607E-6
9.01E-4,9.215E-6
9.011E-4,1.083E-5
9.011E-4,1.203E-5
9.011E-4,1.341E-5
9.011E-4,1.477E-5
9.011E-4,1.749E-5
9.011E-4,2.298E-5
9.011E-4,3.412E-5
9.011E-4,5.707E-5
9.012E-4,1.056E-4
9.014E-4,2.133E-4
9.018E-4,4.709E-4
9.02E-4,6.891E-4
9.02E-4,0.09400
9.02E-4,0.09400
9.02E-4,0.09400
9.02E-4,0.09400
9.021E-4,0.09400
9.021E-4,0.09400
9.022E-4,0.09400
9.023E-4,0.09400
9.026E-4,0.09400
9.03E-4,0.09400
9.03E-4,0.09400
9.03E-4,0.09400
9.03E-4,0.09401
9.031E-4,0.09402
9.031E-4,0.09403
9.031E-4,0.09405
9.032E-4,0.09411
9.034E-4,0.09422
9.037E-4,0.09444
9.040E-4,0.09468
9.040E-4,0.1865
9.040E-4,0.1865
9.040E-4,0.1865
9.040E-4,0.1865
9.041E-4,0.1865
9.041E-4,0.1865
9.042E-4,0.1865
9.043E-4,0.1865
9.046E-4,0.1865
9.05E-4,0.1865
9.05E-4,0.1865
9.05E-4,0.1865
9.05E-4,0.1865
9.051E-4,0.1865
9.051E-4,0.1865
9.051E-4,0.1866
9.052E-4,0.1866
9.054E-4,0.1867
9.057E-4,0.1869
9.06E-4,0.1872
9.06E-4,0.2761
9.06E-4,0.2761
9.06E-4,0.2761
9.06E-4,0.2761
9.061E-4,0.2761
9.061E-4,0.2761
9.062E-4,0.2761
9.063E-4,0.2761
9.066E-4,0.2761
9.07E-4,0.2761
9.07E-4,0.2761
9.07E-4,0.2761
9.07E-4,0.2761
9.071E-4,0.2761
9.071E-4,0.2761
9.071E-4,0.2761
9.072E-4,0.2762
9.074E-4,0.2763
9.077E-4,0.2765
9.08E-4,0.2767
9.08E-4,0.3613
9.08E-4,0.3613
9.08E-4,0.3613
9.08E-4,0.3613
9.08E-4,0.3613
9.08E-4,0.3613
9.08E-4,0.3613
9.08E-4,0.3613
9.08E-4,0.3613
9.08E-4,0.3613
9.08E-4,0.3613
9.08E-4,0.3613
9.081E-4,0.3613
9.081E-4,0.3613
9.082E-4,0.3613
9.083E-4,0.3613
9.086E-4,0.3613
9.09E-4,0.3613
9.09E-4,0.3613
9.09E-4,0.3613
9.09E-4,0.3613
9.091E-4,0.3613
9.091E-4,0.3613
9.091E-4,0.3614
9.092E-4,0.3614
9.094E-4,0.3615
9.097E-4,0.3617
9.1E-4,0.3619
9.1E-4,0.4408
9.1E-4,0.4408
9.1E-4,0.4408
9.1E-4,0.4408
9.101E-4,0.4408
9.101E-4,0.4408
9.102E-4,0.4408
9.103E-4,0.4408
9.106E-4,0.4408
9.11E-4,0.4408
9.11E-4,0.4408
9.11E-4,0.4408
9.11E-4,0.4408
9.111E-4,0.4409
9.111E-4,0.4409
9.111E-4,0.4409
9.113E-4,0.4409
9.115E-4,0.4410
9.117E-4,0.4412
9.120E-4,0.4414
9.120E-4,0.5134
9.120E-4,0.5134
9.120E-4,0.5134
9.120E-4,0.5134
9.121E-4,0.5134
9.121E-4,0.5134
9.122E-4,0.5134
9.123E-4,0.5134
9.126E-4,0.5134
9.13E-4,0.5134
9.13E-4,0.5134
9.13E-4,0.5134
9.13E-4,0.5134
9.131E-4,0.5134
9.131E-4,0.5134
9.131E-4,0.5135
9.133E-4,0.5135
9.135E-4,0.5136
9.137E-4,0.5137
9.14E-4,0.5139
9.14E-4,0.5779
9.14E-4,0.5779
9.14E-4,0.5779
9.14E-4,0.5779
9.14E-4,0.5779
9.14E-4,0.5779
9.14E-4,0.5779
9.14E-4,0.5779
9.14E-4,0.5779
9.141E-4,0.5779
9.141E-4,0.5779
9.141E-4,0.5779
9.142E-4,0.5779
9.144E-4,0.5779
9.147E-4,0.5779
9.15E-4,0.5779
9.15E-4,0.5779
9.15E-4,0.5779
9.15E-4,0.5779
9.151E-4,0.5779
9.151E-4,0.5779
9.152E-4,0.5779
9.153E-4,0.5780
9.155E-4,0.5781
9.16E-4,0.5783
9.16E-4,0.6332
9.16E-4,0.6332
9.16E-4,0.6332
9.16E-4,0.6332
9.161E-4,0.6332
9.161E-4,0.6332
9.162E-4,0.6332
9.164E-4,0.6332
9.167E-4,0.6332
9.17E-4,0.6332
9.17E-4,0.6332
9.17E-4,0.6333
9.171E-4,0.6333
9.171E-4,0.6333
9.171E-4,0.6333
9.172E-4,0.6333
9.174E-4,0.6333
9.177E-4,0.6335
9.18E-4,0.6336
9.18E-4,0.6786
9.18E-4,0.6786
9.18E-4,0.6786
9.18E-4,0.6786
9.181E-4,0.6786
9.181E-4,0.6786
9.182E-4,0.6786
9.184E-4,0.6786
9.187E-4,0.6786
9.19E-4,0.6786
9.19E-4,0.6786
9.19E-4,0.6786
9.191E-4,0.6786
9.191E-4,0.6786
9.191E-4,0.6786
9.192E-4,0.6787
9.194E-4,0.6787
9.197E-4,0.6788
9.200E-4,0.6789
9.200E-4,0.7133
9.200E-4,0.7133
9.200E-4,0.7133
9.201E-4,0.7133
9.201E-4,0.7133
9.201E-4,0.7133
9.202E-4,0.7133
9.205E-4,0.7133
9.207E-4,0.7133
9.21E-4,0.7133
9.21E-4,0.7133
9.21E-4,0.7133
9.211E-4,0.7133
9.211E-4,0.7133
9.211E-4,0.7133
9.212E-4,0.7133
9.214E-4,0.7134
9.217E-4,0.7134
9.22E-4,0.7135
9.22E-4,0.7367
9.22E-4,0.7367
9.221E-4,0.7367
9.221E-4,0.7367
9.221E-4,0.7367
9.222E-4,0.7367
9.223E-4,0.7367
9.227E-4,0.7367
9.23E-4,0.7367
9.23E-4,0.7367
9.23E-4,0.7367
9.231E-4,0.7367
9.231E-4,0.7367
9.232E-4,0.7367
9.233E-4,0.7367
9.236E-4,0.7368
9.24E-4,0.7368
9.24E-4,0.7485
9.24E-4,0.7485
9.241E-4,0.7485
9.241E-4,0.7485
9.241E-4,0.7485
9.242E-4,0.7485
9.244E-4,0.7485
9.247E-4,0.7485
9.25E-4,0.7485
9.25E-4,0.7485
9.25E-4,0.7485
9.251E-4,0.7485
9.251E-4,0.7485
9.252E-4,0.7485
9.255E-4,0.7485
9.257E-4,0.7485
9.26E-4,0.7485
9.26E-4,0.7485
9.26E-4,0.7485
9.261E-4,0.7485
9.262E-4,0.7485
9.263E-4,0.7485
9.266E-4,0.7485
9.27E-4,0.7485
9.27E-4,0.7485
9.27E-4,0.7485
9.271E-4,0.7485
9.271E-4,0.7485
9.272E-4,0.7485
9.273E-4,0.7485
9.277E-4,0.7485
9.28E-4,0.7484
9.28E-4,0.7367
9.28E-4,0.7367
9.281E-4,0.7367
9.281E-4,0.7367
9.281E-4,0.7367
9.282E-4,0.7367
9.284E-4,0.7367
9.287E-4,0.7367
9.290E-4,0.7367
9.290E-4,0.7367
9.290E-4,0.7367
9.291E-4,0.7367
9.291E-4,0.7367
9.292E-4,0.7367
9.293E-4,0.7367
9.295E-4,0.7366
9.298E-4,0.7366
9.3E-4,0.7366
9.3E-4,0.7133
9.3E-4,0.7133
9.301E-4,0.7133
9.301E-4,0.7133
9.301E-4,0.7133
9.302E-4,0.7133
9.303E-4,0.7133
9.307E-4,0.7133
9.31E-4,0.7133
9.31E-4,0.7133
9.31E-4,0.7133
9.311E-4,0.7133
9.311E-4,0.7133
9.311E-4,0.7133
9.312E-4,0.7133
9.314E-4,0.7132
9.317E-4,0.7131
9.32E-4,0.7130
9.32E-4,0.6786
9.32E-4,0.6786
9.32E-4,0.6786
9.321E-4,0.6786
9.321E-4,0.6786
9.321E-4,0.6786
9.322E-4,0.6786
9.325E-4,0.6786
9.327E-4,0.6786
9.33E-4,0.6786
9.33E-4,0.6786
9.33E-4,0.6786
9.331E-4,0.6786
9.331E-4,0.6786
9.331E-4,0.6786
9.332E-4,0.6786
9.334E-4,0.6785
9.337E-4,0.6784
9.34E-4,0.6783
9.34E-4,0.6332
9.34E-4,0.6332
9.34E-4,0.6332
9.34E-4,0.6332
9.341E-4,0.6332
9.341E-4,0.6332
9.342E-4,0.6332
9.344E-4,0.6332
9.347E-4,0.6332
9.35E-4,0.6332
9.35E-4,0.6332
9.35E-4,0.6332
9.351E-4,0.6332
9.351E-4,0.6332
9.351E-4,0.6332
9.352E-4,0.6332
9.353E-4,0.6332
9.356E-4,0.6331
9.36E-4,0.6328
9.36E-4,0.5779
9.36E-4,0.5779
9.36E-4,0.5779
9.36E-4,0.5779
9.361E-4,0.5779
9.361E-4,0.5779
9.362E-4,0.5779
9.364E-4,0.5779
9.367E-4,0.5779
9.370E-4,0.5779
9.370E-4,0.5779
9.370E-4,0.5779
9.370E-4,0.5779
9.371E-4,0.5779
9.371E-4,0.5779
9.372E-4,0.5778
9.373E-4,0.5778
9.375E-4,0.5777
9.378E-4,0.5776
9.38E-4,0.5774
9.38E-4,0.5134
9.38E-4,0.5134
9.38E-4,0.5134
9.38E-4,0.5134
9.38E-4,0.5134
9.38E-4,0.5134
9.38E-4,0.5134
9.38E-4,0.5134
9.38E-4,0.5134
9.381E-4,0.5134
9.381E-4,0.5134
9.381E-4,0.5134
9.382E-4,0.5134
9.384E-4,0.5134
9.387E-4,0.5134
9.39E-4,0.5134
9.39E-4,0.5134
9.39E-4,0.5134
9.39E-4,0.5134
9.391E-4,0.5134
9.391E-4,0.5134
9.391E-4,0.5134
9.393E-4,0.5133
9.395E-4,0.5132
9.397E-4,0.5131
9.4E-4,0.5129
9.4E-4,0.4408
9.4E-4,0.4408
9.4E-4,0.4408
9.4E-4,0.4408
9.401E-4,0.4408
9.401E-4,0.4408
9.402E-4,0.4408
9.403E-4,0.4408
9.406E-4,0.4408
9.41E-4,0.4408
9.41E-4,0.4408
9.41E-4,0.4408
9.41E-4,0.4408
9.411E-4,0.4408
9.411E-4,0.4408
9.411E-4,0.4408
9.412E-4,0.4407
9.415E-4,0.4406
9.417E-4,0.4405
9.42E-4,0.4403
9.42E-4,0.3613
9.42E-4,0.3613
9.42E-4,0.3613
9.42E-4,0.3613
9.421E-4,0.3613
9.421E-4,0.3613
9.422E-4,0.3613
9.423E-4,0.3613
9.426E-4,0.3613
9.43E-4,0.3613
9.43E-4,0.3613
9.43E-4,0.3613
9.43E-4,0.3613
9.431E-4,0.3613
9.431E-4,0.3613
9.431E-4,0.3613
9.432E-4,0.3612
9.434E-4,0.3611
9.437E-4,0.3609
9.44E-4,0.3607
9.44E-4,0.2761
9.44E-4,0.2761
9.44E-4,0.2761
9.44E-4,0.2761
9.44E-4,0.2761
9.44E-4,0.2761
9.44E-4,0.2761
9.44E-4,0.2761
9.44E-4,0.2761
9.44E-4,0.2761
9.44E-4,0.2761
9.44E-4,0.2761
9.441E-4,0.2761
9.441E-4,0.2761
9.442E-4,0.2761
9.443E-4,0.2761
9.446E-4,0.2761
9.450E-4,0.2761
9.450E-4,0.2761
9.450E-4,0.2761
9.450E-4,0.2761
9.451E-4,0.2761
9.451E-4,0.2761
9.451E-4,0.2760
9.452E-4,0.2760
9.454E-4,0.2759
9.457E-4,0.2757
9.46E-4,0.2754
9.46E-4,0.1865
9.46E-4,0.1865
9.46E-4,0.1865
9.46E-4,0.1865
9.461E-4,0.1865
9.461E-4,0.1865
9.462E-4,0.1865
9.463E-4,0.1865
9.466E-4,0.1865
9.47E-4,0.1865
9.47E-4,0.1865
9.47E-4,0.1865
9.47E-4,0.1865
9.471E-4,0.1865
9.471E-4,0.1865
9.471E-4,0.1865
9.472E-4,0.1864
9.474E-4,0.1863
9.477E-4,0.1861
9.48E-4,0.1858
9.48E-4,0.09401
9.48E-4,0.09401
9.48E-4,0.09401
9.48E-4,0.09401
9.481E-4,0.09401
9.481E-4,0.09401
9.482E-4,0.09401
9.483E-4,0.09401
9.486E-4,0.09401
9.49E-4,0.09401
9.49E-4,0.09400
9.49E-4,0.09400
9.49E-4,0.09399
9.491E-4,0.09399
9.491E-4,0.09397
9.491E-4,0.09395
9.492E-4,0.09390
9.494E-4,0.09378
9.497E-4,0.09356
9.5E-4,0.09331
9.5E-4,8.813E-6
9.5E-4,8.812E-6
9.5E-4,8.812E-6
9.5E-4,8.812E-6
9.501E-4,8.812E-6
9.501E-4,8.812E-6
9.502E-4,8.812E-6
9.503E-4,8.812E-6
9.506E-4,8.812E-6
9.51E-4,8.811E-6
9.51E-4,4.055E-6
9.51E-4,-1.029E-6
9.51E-4,-5.904E-6
9.51E-4,-7.607E-6
9.51E-4,-9.215E-6
9.511E-4,-1.083E-5
9.511E-4,-1.203E-5
9.511E-4,-1.341E-5
9.511E-4,-1.477E-5
9.511E-4,-1.749E-5
9.511E-4,-2.298E-5
9.511E-4,-3.412E-5
9.511E-4,-5.707E-5
9.512E-4,-1.056E-4
9.514E-4,-2.133E-4
9.518E-4,-4.709E-4
9.52E-4,-6.891E-4
9.52E-4,-0.09400
9.52E-4,-0.09400
9.52E-4,-0.09400
9.52E-4,-0.09400
9.521E-4,-0.09400
9.521E-4,-0.09400
9.522E-4,-0.09400
9.523E-4,-0.09400
9.526E-4,-0.09400
9.53E-4,-0.09400
9.53E-4,-0.09400
9.53E-4,-0.09400
9.53E-4,-0.09401
9.531E-4,-0.09402
9.531E-4,-0.09403
9.531E-4,-0.09405
9.532E-4,-0.09411
9.534E-4,-0.09422
9.537E-4,-0.09444
9.540E-4,-0.09468
9.540E-4,-0.1865
9.540E-4,-0.1865
9.540E-4,-0.1865
9.540E-4,-0.1865
9.541E-4,-0.1865
9.541E-4,-0.1865
9.542E-4,-0.1865
9.543E-4,-0.1865
9.546E-4,-0.1865
9.55E-4,-0.1865
9.55E-4,-0.1865
9.55E-4,-0.1865
9.55E-4,-0.1865
9.551E-4,-0.1865
9.551E-4,-0.1865
9.551E-4,-0.1866
9.552E-4,-0.1866
9.554E-4,-0.1867
9.557E-4,-0.1869
9.56E-4,-0.1872
9.56E-4,-0.2761
9.56E-4,-0.2761
9.56E-4,-0.2761
9.56E-4,-0.2761
9.561E-4,-0.2761
9.561E-4,-0.2761
9.562E-4,-0.2761
9.563E-4,-0.2761
9.566E-4,-0.2761
9.57E-4,-0.2761
9.57E-4,-0.2761
9.57E-4,-0.2761
9.57E-4,-0.2761
9.571E-4,-0.2761
9.571E-4,-0.2761
9.571E-4,-0.2761
9.572E-4,-0.2762
9.574E-4,-0.2763
9.577E-4,-0.2765
9.58E-4,-0.2767
9.58E-4,-0.3613
9.58E-4,-0.3613
9.58E-4,-0.3613
9.58E-4,-0.3613
9.58E-4,-0.3613
9.58E-4,-0.3613
9.58E-4,-0.3613
9.58E-4,-0.3613
9.58E-4,-0.3613
9.58E-4,-0.3613
9.58E-4,-0.3613
9.58E-4,-0.3613
9.581E-4,-0.3613
9.581E-4,-0.3613
9.582E-4,-0.3613
9.583E-4,-0.3613
9.586E-4,-0.3613
9.59E-4,-0.3613
9.59E-4,-0.3613
9.59E-4,-0.3613
9.59E-4,-0.3613
9.591E-4,-0.3613
9.591E-4,-0.3613
9.591E-4,-0.3614
9.592E-4,-0.3614
9.594E-4,-0.3615
9.597E-4,-0.3617
9.6E-4,-0.3619
9.6E-4,-0.4408
9.6E-4,-0.4408
9.6E-4,-0.4408
9.6E-4,-0.4408
9.601E-4,-0.4408
9.601E-4,-0.4408
9.602E-4,-0.4408
9.603E-4,-0.4408
9.606E-4,-0.4408
9.61E-4,-0.4408
9.61E-4,-0.4408
9.61E-4,-0.4408
9.61E-4,-0.4408
9.611E-4,-0.4409
9.611E-4,-0.4409
9.611E-4,-0.4409
9.613E-4,-0.4409
9.615E-4,-0.4410
9.617E-4,-0.4412
9.620E-4,-0.4414
9.620E-4,-0.5134
9.620E-4,-0.5134
9.620E-4,-0.5134
9.620E-4,-0.5134
9.621E-4,-0.5134
9.621E-4,-0.5134
9.622E-4,-0.5134
9.623E-4,-0.5134
9.626E-4,-0.5134
9.63E-4,-0.5134
9.63E-4,-0.5134
9.63E-4,-0.5134
9.63E-4,-0.5134
9.631E-4,-0.5134
9.631E-4,-0.5134
9.631E-4,-0.5135
9.633E-4,-0.5135
9.635E-4,-0.5136
9.637E-4,-0.5137
9.64E-4,-0.5139
9.64E-4,-0.5779
9.64E-4,-0.5779
9.64E-4,-0.5779
9.64E-4,-0.5779
9.64E-4,-0.5779
9.64E-4,-0.5779
9.64E-4,-0.5779
9.64E-4,-0.5779
9.64E-4,-0.5779
9.641E-4,-0.5779
9.641E-4,-0.5779
9.641E-4,-0.5779
9.642E-4,-0.5779
9.644E-4,-0.5779
9.647E-4,-0.5779
9.65E-4,-0.5779
9.65E-4,-0.5779
9.65E-4,-0.5779
9.65E-4,-0.5779
9.651E-4,-0.5779
9.651E-4,-0.5779
9.652E-4,-0.5779
9.653E-4,-0.5780
9.655E-4,-0.5781
9.66E-4,-0.5783
9.66E-4,-0.6332
9.66E-4,-0.6332
9.66E-4,-0.6332
9.66E-4,-0.6332
9.661E-4,-0.6332
9.661E-4,-0.6332
9.662E-4,-0.6332
9.664E-4,-0.6332
9.667E-4,-0.6332
9.67E-4,-0.6332
9.67E-4,-0.6332
9.67E-4,-0.6333
9.671E-4,-0.6333
9.671E-4,-0.6333
9.671E-4,-0.6333
9.672E-4,-0.6333
9.674E-4,-0.6333
9.677E-4,-0.6335
9.68E-4,-0.6336
9.68E-4,-0.6786
9.68E-4,-0.6786
9.68E-4,-0.6786
9.68E-4,-0.6786
9.681E-4,-0.6786
9.681E-4,-0.6786
9.682E-4,-0.6786
9.684E-4,-0.6786
9.687E-4,-0.6786
9.69E-4,-0.6786
9.69E-4,-0.6786
9.69E-4,-0.6786
9.691E-4,-0.6786
9.691E-4,-0.6786
9.691E-4,-0.6786
9.692E-4,-0.6787
9.694E-4,-0.6787
9.697E-4,-0.6788
9.700E-4,-0.6789
9.700E-4,-0.7133
9.700E-4,-0.7133
9.700E-4,-0.7133
9.701E-4,-0.7133
9.701E-4,-0.7133
9.701E-4,-0.7133
9.702E-4,-0.7133
9.705E-4,-0.7133
9.707E-4,-0.7133
9.71E-4,-0.7133
9.71E-4,-0.7133
9.71E-4,-0.7133
9.711E-4,-0.7133
9.711E-4,-0.7133
9.711E-4,-0.7133
9.712E-4,-0.7133
9.714E-4,-0.7134
9.717E-4,-0.7134
9.72E-4,-0.7135
9.72E-4,-0.7367
9.72E-4,-0.7367
9.721E-4,-0.7367
9.721E-4,-0.7367
9.721E-4,-0.7367
9.722E-4,-0.7367
9.723E-4,-0.7367
9.727E-4,-0.7367
9.73E-4,-0.7367
9.73E-4,-0.7367
9.73E-4,-0.7367
9.731E-4,-0.7367
9.731E-4,-0.7367
9.732E-4,-0.7367
9.733E-4,-0.7367
9.736E-4,-0.7368
9.74E-4,-0.7368
9.74E-4,-0.7485
9.74E-4,-0.7485
9.741E-4,-0.7485
9.741E-4,-0.7485
9.741E-4,-0.7485
9.742E-4,-0.7485
9.744E-4,-0.7485
9.747E-4,-0.7485
9.75E-4,-0.7485
9.75E-4,-0.7485
9.75E-4,-0.7485
9.751E-4,-0.7485
9.751E-4,-0.7485
9.752E-4,-0.7485
9.755E-4,-0.7485
9.757E-4,-0.7485
9.76E-4,-0.7485
9.76E-4,-0.7485
9.76E-4,-0.7485
9.761E-4,-0.7485
9.762E-4,-0.7485
9.763E-4,-0.7485
9.766E-4,-0.7485
9.77E-4,-0.7485
9.77E-4,-0.7485
9.77E-4,-0.7485
9.771E-4,-0.7485
9.771E-4,-0.7485
9.772E-4,-0.7485
9.773E-4,-0.7485
9.777E-4,-0.7485
9.78E-4,-0.7484
9.78E-4,-0.7367
9.78E-4,-0.7367
9.781E-4,-0.7367
9.781E-4,-0.7367
9.781E-4,-0.7367
9.782E-4,-0.7367
9.784E-4,-0.7367
9.787E-4,-0.7367
9.790E-4,-0.7367
9.790E-4,-0.7367
9.790E-4,-0.7367
9.791E-4,-0.7367
9.791E-4,-0.7367
9.792E-4,-0.7367
9.793E-4,-0.7367
9.795E-4,-0.7366
9.798E-4,-0.7366
9.8E-4,-0.7366
9.8E-4,-0.7133
9.8E-4,-0.7133
9.801E-4,-0.7133
9.801E-4,-0.7133
9.801E-4,-0.7133
9.802E-4,-0.7133
9.803E-4,-0.7133
9.807E-4,-0.7133
9.81E-4,-0.7133
9.81E-4,-0.7133
9.81E-4,-0.7133
9.811E-4,-0.7133
9.811E-4,-0.7133
9.811E-4,-0.7133
9.812E-4,-0.7133
9.814E-4,-0.7132
9.817E-4,-0.7131
9.82E-4,-0.7130
9.82E-4,-0.6786
9.82E-4,-0.6786
9.82E-4,-0.6786
9.821E-4,-0.6786
9.821E-4,-0.6786
9.821E-4,-0.6786
9.822E-4,-0.6786
9.825E-4,-0.6786
9.827E-4,-0.6786
9.83E-4,-0.6786
9.83E-4,-0.6786
9.83E-4,-0.6786
9.831E-4,-0.6786
9.831E-4,-0.6786
9.831E-4,-0.6786
9.832E-4,-0.6786
9.834E-4,-0.6785
9.837E-4,-0.6784
9.84E-4,-0.6783
9.84E-4,-0.6332
9.84E-4,-0.6332
9.84E-4,-0.6332
9.84E-4,-0.6332
9.841E-4,-0.6332
9.841E-4,-0.6332
9.842E-4,-0.6332
9.844E-4,-0.6332
9.847E-4,-0.6332
9.85E-4,-0.6332
9.85E-4,-0.6332
9.85E-4,-0.6332
9.851E-4,-0.6332
9.851E-4,-0.6332
9.851E-4,-0.6332
9.852E-4,-0.6332
9.853E-4,-0.6332
9.856E-4,-0.6331
9.86E-4,-0.6328
9.86E-4,-0.5779
9.86E-4,-0.5779
9.86E-4,-0.5779
9.86E-4,-0.5779
9.861E-4,-0.5779
9.861E-4,-0.5779
9.862E-4,-0.5779
9.864E-4,-0.5779
9.867E-4,-0.5779
9.870E-4,-0.5779
9.870E-4,-0.5779
9.870E-4,-0.5779
9.870E-4,-0.5779
9.871E-4,-0.5779
9.871E-4,-0.5779
9.872E-4,-0.5778
9.873E-4,-0.5778
9.875E-4,-0.5777
9.878E-4,-0.5776
9.88E-4,-0.5774
9.88E-4,-0.5134
9.88E-4,-0.5134
9.88E-4,-0.5134
9.88E-4,-0.5134
9.88E-4,-0.5134
9.88E-4,-0.5134
9.88E-4,-0.5134
9.88E-4,-0.5134
9.88E-4,-0.5134
9.881E-4,-0.5134
9.881E-4,-0.5134
9.881E-4,-0.5134
9.882E-4,-0.5134
9.884E-4,-0.5134
9.887E-4,-0.5134
9.89E-4,-0.5134
9.89E-4,-0.5134
9.89E-4,-0.5134
9.89E-4,-0.5134
9.891E-4,-0.5134
9.891E-4,-0.5134
9.891E-4,-0.5134
9.893E-4,-0.5133
9.895E-4,-0.5132
9.897E-4,-0.5131
9.9E-4,-0.5129
9.9E-4,-0.4408
9.9E-4,-0.4408
9.9E-4,-0.4408
9.9E-4,-0.4408
9.901E-4,-0.4408
9.901E-4,-0.4408
9.902E-4,-0.4408
9.903E-4,-0.4408
9.906E-4,-0.4408
9.91E-4,-0.4408
9.91E-4,-0.4408
9.91E-4,-0.4408
9.91E-4,-0.4408
9.911E-4,-0.4408
9.911E-4,-0.4408
9.911E-4,-0.4408
9.912E-4,-0.4407
9.915E-4,-0.4406
9.917E-4,-0.4405
9.92E-4,-0.4403
9.92E-4,-0.3613
9.92E-4,-0.3613
9.92E-4,-0.3613
9.92E-4,-0.3613
9.921E-4,-0.3613
9.921E-4,-0.3613
9.922E-4,-0.3613
9.923E-4,-0.3613
9.926E-4,-0.3613
9.93E-4,-0.3613
9.93E-4,-0.3613
9.93E-4,-0.3613
9.93E-4,-0.3613
9.931E-4,-0.3613
9.931E-4,-0.3613
9.931E-4,-0.3613
9.932E-4,-0.3612
9.934E-4,-0.3611
9.937E-4,-0.3609
9.94E-4,-0.3607
9.94E-4,-0.2761
9.94E-4,-0.2761
9.94E-4,-0.2761
9.94E-4,-0.2761
9.94E-4,-0.2761
9.94E-4,-0.2761
9.94E-4,-0.2761
9.94E-4,-0.2761
9.94E-4,-0.2761
9.94E-4,-0.2761
9.94E-4,-0.2761
9.94E-4,-0.2761
9.941E-4,-0.2761
9.941E-4,-0.2761
9.942E-4,-0.2761
9.943E-4,-0.2761
9.946E-4,-0.2761
9.950E-4,-0.2761
9.950E-4,-0.2761
9.950E-4,-0.2761
9.950E-4,-0.2761
9.951E-4,-0.2761
9.951E-4,-0.2761
9.951E-4,-0.2760
9.952E-4,-0.2760
9.954E-4,-0.2759
9.957E-4,-0.2757
9.96E-4,-0.2754
9.96E-4,-0.1865
9.96E-4,-0.1865
9.96E-4,-0.1865
9.96E-4,-0.1865
9.961E-4,-0.1865
9.961E-4,-0.1865
9.962E-4,-0.1865
9.963E-4,-0.1865
9.966E-4,-0.1865
9.97E-4,-0.1865
9.97E-4,-0.1865
9.97E-4,-0.1865
9.97E-4,-0.1865
9.971E-4,-0.1865
9.971E-4,-0.1865
9.971E-4,-0.1865
9.972E-4,-0.1864
9.974E-4,-0.1863
9.977E-4,-0.1861
9.98E-4,-0.1858
9.98E-4,-0.09401
9.98E-4,-0.09401
9.98E-4,-0.09401
9.98E-4,-0.09401
9.981E-4,-0.09401
9.981E-4,-0.09401
9.982E-4,-0.09401
9.983E-4,-0.09401
9.986E-4,-0.09401
9.99E-4,-0.09401
9.99E-4,-0.09400
9.99E-4,-0.09400
9.99E-4,-0.09399
9.991E-4,-0.09399
9.991E-4,-0.09397
9.991E-4,-0.09395
9.992E-4,-0.09390
9.994E-4,-0.09378
9.997E-4,-0.09356
1.0E-3,-0.09331
